time,seconds_elapsed,z,y,x
1652389088168694300,0.0446943359375,-0.10717296600341797,0.0124969482421875,0.16232600808143616
1652389088178691300,0.05469140625,-0.10466861724853516,0.008028984069824219,0.16096806526184082
1652389088188689000,0.06468896484375,-0.09614086151123047,-0.0070247650146484375,0.1577613353729248
1652389088198686200,0.074686279296875,-0.08174896240234375,-0.03222990036010742,0.15297040343284607
1652389088208683800,0.084683837890625,-0.1219186782836914,0.02209329605102539,-0.07706792652606964
1652389088218681300,0.094681396484375,-0.1401538848876953,0.0497283935546875,-0.32418936491012573
1652389088228679000,0.104678955078125,-0.13266468048095703,0.04593706130981445,-0.5888333916664124
1652389088238676500,0.114676513671875,-0.0969400405883789,0.009829521179199219,-0.874442458152771
1652389088248673800,0.124673828125,-0.03447532653808594,-0.052496910095214844,-1.1733853816986084
1652389088258671400,0.13467138671875,0.018091201782226562,-0.0962824821472168,-1.3965840339660645
1652389088268669000,0.1446689453125,0.03004169464111328,-0.09548091888427734,-1.486417293548584
1652389088278666000,0.154666015625,0.02746868133544922,-0.08722972869873047,-1.50270676612854
1652389088288663600,0.16466357421875,0.03210926055908203,-0.09889698028564453,-1.486571192741394
1652389088298661000,0.1746611328125,0.04491996765136719,-0.12989425659179688,-1.4454290866851807
1652389088308658700,0.18465869140625,0.05349922180175781,-0.1580815315246582,-1.382827877998352
1652389088318656000,0.194656005859375,0.0504913330078125,-0.17329120635986328,-1.2854896783828735
1652389088328653600,0.204653564453125,0.037766456604003906,-0.17878341674804688,-1.1411508321762085
1652389088338651100,0.214651123046875,0.02251720428466797,-0.1788654327392578,-0.9760141372680664
1652389088348648700,0.224648681640625,0.007595062255859375,-0.1735978126525879,-0.815355658531189
1652389088358646300,0.234646240234375,-0.0088653564453125,-0.15903663635253906,-0.6760691404342651
1652389088368643800,0.244643798828125,-0.02541065216064453,-0.13930273056030273,-0.5576197504997253
1652389088379721700,0.2557216796875,-0.042324066162109375,-0.11556339263916016,-0.45337870717048645
1652389088389719300,0.26571923828125,-0.061272621154785156,-0.08591890335083008,-0.35783621668815613
1652389088399716900,0.275716796875,-0.08214664459228516,-0.050889015197753906,-0.26077550649642944
1652389088409714400,0.28571435546875,-0.10312271118164062,-0.013495922088623047,-0.16691966354846954
1652389088419712000,0.2957119140625,-0.11932182312011719,0.017341136932373047,-0.08258543908596039
1652389088429709600,0.30570947265625,-0.12747478485107422,0.03461122512817383,-0.019208431243896484
1652389088439707100,0.31570703125,-0.12094306945800781,0.02387237548828125,-0.007215917110443115
1652389088449704700,0.32570458984375,-0.10727787017822266,-0.0004734992980957031,-0.01795262098312378
1652389088459702300,0.335702392578125,-0.08975410461425781,-0.03196144104003906,-0.04247939586639404
1652389088469699800,0.345699951171875,-0.06700992584228516,-0.07215213775634766,-0.07147307693958282
1652389088479697400,0.355697509765625,-0.042385101318359375,-0.11473512649536133,-0.09594926238059998
1652389088489695000,0.365695068359375,-0.020481109619140625,-0.15205907821655273,-0.11618612706661224
1652389088499692500,0.375692626953125,-0.0049266815185546875,-0.1782398223876953,-0.12875275313854218
1652389088509656800,0.38565673828125,0.0035028457641601562,-0.19225740432739258,-0.1330963373184204
1652389088519621000,0.39562109375,0.006197929382324219,-0.19652795791625977,-0.12753689289093018
1652389088529585200,0.405585205078125,0.00238800048828125,-0.1895275115966797,-0.10545706748962402
1652389088539549400,0.415549560546875,-0.0035991668701171875,-0.17857599258422852,-0.0771058052778244
1652389088549547000,0.425547119140625,-1.299910068511963,0.7822470664978027,0.02817089855670929
1652389088559544600,0.435544677734375,-1.3039231300354004,0.7890400886535645,0.03145204484462738
1652389088569542100,0.445542236328125,-1.3059821128845215,0.7918434143066406,0.017324939370155334
1652389088579540000,0.4555400390625,-1.3059773445129395,0.7909460067749023,-0.004751965403556824
1652389088589537500,0.46553759765625,0.028809547424316406,-0.9432625770568848,1.0655173063278198
1652389088599535000,0.47553515625,0.09266948699951172,-1.2125213146209717,1.2133978605270386
1652389088609532700,0.48553271484375,0.2581014633178711,-1.1549873352050781,1.3887712955474854
1652389088619530200,0.4955302734375,0.7005844116210938,-1.2840099334716797,1.4374045133590698
1652389088629527800,0.50552783203125,0.9540395736694336,-1.425908088684082,1.4989873170852661
1652389088639525400,0.515525390625,1.3878021240234375,-1.676640510559082,1.444054126739502
1652389088649523000,0.52552294921875,1.3586788177490234,-1.625253677368164,1.4366774559020996
1652389088659520500,0.5355205078125,1.5944185256958008,-1.7668561935424805,1.5303975343704224
1652389088669518000,0.54551806640625,1.777517318725586,-1.4234580993652344,1.3937978744506836
1652389088679516400,0.555516357421875,1.677689552307129,-1.2912755012512207,1.1603987216949463
1652389088689514000,0.565513916015625,1.3366899490356445,-1.5858073234558105,1.2867707014083862
1652389088699511600,0.575511474609375,1.6336584091186523,-1.637359619140625,1.6665197610855103
1652389088709509000,0.585509033203125,1.6850156784057617,-1.3991780281066895,1.166453242301941
1652389088719506700,0.595506591796875,1.6732234954833984,-1.3541927337646484,1.1127256155014038
1652389088729504300,0.605504150390625,1.0873031616210938,-1.2630834579467773,0.6585652828216553
1652389088739501800,0.615501708984375,-0.4164581298828125,-1.2839043140411377,0.901782751083374
1652389088749499400,0.62549951171875,-0.5522499084472656,-1.2057297229766846,1.2197277545928955
1652389088759497000,0.6354970703125,-0.6096539497375488,-1.366086721420288,1.6541051864624023
1652389088769494500,0.64549462890625,0.3206901550292969,-0.7951195240020752,2.3093278408050537
1652389088779492000,0.6554921875,0.3370485305786133,-0.631035327911377,1.2341201305389404
1652389088789489400,0.665489501953125,-0.8276576995849609,-1.3274154663085938,0.6026120185852051
1652389088799487000,0.675487060546875,-0.5360841751098633,-0.7467970848083496,0.8918672800064087
1652389088809518000,0.68551806640625,-0.6102590560913086,-0.5880751609802246,1.0140914916992188
1652389088819549000,0.695548828125,-0.6200475692749023,-0.5686874389648438,1.002083420753479
1652389088829579800,0.705579833984375,-0.12627601623535156,-1.1504361629486084,0.7077106833457947
1652389088839610600,0.715610595703125,0.5693721771240234,-0.8635990619659424,1.0450695753097534
1652389088849608200,0.725608154296875,0.6322813034057617,-0.919867753982544,0.8785520792007446
1652389088859605800,0.735605712890625,0.4114198684692383,-1.0864808559417725,0.7098968625068665
1652389088869603300,0.745603271484375,0.2179851531982422,-0.9660816192626953,0.8156030774116516
1652389088879601000,0.755600830078125,-0.15938377380371094,-0.9521939754486084,0.8230743408203125
1652389088889598500,0.765598388671875,-0.42000579833984375,-1.0266351699829102,0.8927947282791138
1652389088899596000,0.775595947265625,-0.2955589294433594,-1.066483974456787,0.999582052230835
1652389088909593600,0.785593505859375,-0.25252723693847656,-0.981661319732666,0.9281381368637085
1652389088919591200,0.795591064453125,-0.5940971374511719,-0.8690640926361084,0.8643285036087036
1652389088929588700,0.805588623046875,-1.120175838470459,-0.8531286716461182,0.8450409173965454
1652389088939586300,0.81558642578125,-1.589493751525879,-0.8558857440948486,0.9559399485588074
1652389088949583600,0.82558349609375,-1.7714219093322754,-1.21612548828125,1.464695692062378
1652389088959581200,0.835581298828125,-1.2223806381225586,-1.2705621719360352,1.4552816152572632
1652389088969578800,0.845578857421875,-1.149205207824707,-1.2174055576324463,1.1980791091918945
1652389088979576300,0.855576416015625,-0.5371646881103516,-1.7808825969696045,1.5338612794876099
1652389088989574000,0.865573974609375,-0.8296985626220703,-3.205872058868408,2.7021853923797607
1652389088999571500,0.875571533203125,-0.9820661544799805,-3.5004305839538574,2.5845789909362793
1652389089009569000,0.885569091796875,-1.1895055770874023,-3.0242748260498047,2.1126341819763184
1652389089019566600,0.895566650390625,-2.064795970916748,-2.603652000427246,1.7033299207687378
1652389089029564200,0.905564208984375,-2.3891725540161133,-2.604604721069336,1.5698131322860718
1652389089039561700,0.915561767578125,-2.6411356925964355,-2.770604133605957,1.659781813621521
1652389089049559300,0.925559326171875,-3.300330638885498,-3.1602461338043213,2.0632591247558594
1652389089059556900,0.935556884765625,-4.026521682739258,-3.503101348876953,2.7321951389312744
1652389089069554400,0.945554443359375,-4.273945331573486,-3.7023167610168457,2.9575045108795166
1652389089079552000,0.955552001953125,-4.111592769622803,-3.436089038848877,2.504384994506836
1652389089089549600,0.965549560546875,-3.900277614593506,-3.114030361175537,1.8817992210388184
1652389089099547100,0.975547119140625,-3.697525978088379,-2.928300142288208,0.9647111892700195
1652389089109544700,0.985544677734375,-3.496549606323242,-3.327802896499634,0.8147597312927246
1652389089119542300,0.995542236328125,-3.782763957977295,-3.431248188018799,0.31816816329956055
1652389089129539600,1.00553955078125,-3.655850410461426,-2.9404828548431396,-0.3722672462463379
1652389089139537200,1.015537109375,-3.534140110015869,-2.758115291595459,-0.6888589859008789
1652389089149534700,1.02553466796875,-3.156400203704834,-3.624063491821289,0.3969998359680176
1652389089159532300,1.0355322265625,-3.585394859313965,-4.047643184661865,0.7100133895874023
1652389089169529900,1.04552978515625,-3.7140722274780273,-4.300599098205566,0.979856014251709
1652389089179527400,1.05552734375,-3.760495901107788,-4.222410202026367,1.0582966804504395
1652389089189525000,1.06552490234375,-3.0624613761901855,-4.048686981201172,1.112070083618164
1652389089199522600,1.0755224609375,-2.566941261291504,-4.214962005615234,0.8117771148681641
1652389089209520000,1.08552001953125,-2.3793869018554688,-4.345109939575195,0.15266132354736328
1652389089219517700,1.095517578125,-2.010228157043457,-4.4884233474731445,-0.6644392013549805
1652389089229515300,1.105515380859375,-1.301797866821289,-4.560230731964111,-1.5540614128112793
1652389089239512800,1.115512939453125,-0.6874294281005859,-4.501690864562988,-2.027616024017334
1652389089249510400,1.125510498046875,-0.3267221450805664,-4.206275463104248,-2.285490036010742
1652389089259508000,1.135508056640625,0.07507753372192383,-4.33970308303833,-1.0934782028198242
1652389089269505500,1.145505615234375,0.675361156463623,-4.284633636474609,-0.7069911956787109
1652389089279503000,1.155503173828125,0.9534430503845215,-3.8580503463745117,0.40606021881103516
1652389089289500700,1.165500732421875,1.247067928314209,-3.517742395401001,1.608072280883789
1652389089299498200,1.175498291015625,1.4260144233703613,-3.4939732551574707,2.359342575073242
1652389089309495800,1.185495849609375,1.3935422897338867,-3.5276241302490234,2.73148250579834
1652389089319493400,1.195493408203125,2.081444025039673,-3.5621471405029297,2.5546064376831055
1652389089329491000,1.205490966796875,3.116612195968628,-3.2675085067749023,1.9692068099975586
1652389089339488500,1.215488525390625,3.835634469985962,-2.6022040843963623,1.224745750427246
1652389089349486000,1.225486083984375,4.001981735229492,-2.2402195930480957,1.177128791809082
1652389089359483600,1.235483642578125,3.7010648250579834,-2.351396083831787,1.6168098449707031
1652389089369514500,1.245514404296875,3.63216495513916,-2.53049898147583,2.217829704284668
1652389089379545300,1.25554541015625,4.007184982299805,-2.3234517574310303,3.1132946014404297
1652389089389576200,1.265576171875,4.30849552154541,-2.1047871112823486,3.7252864837646484
1652389089399607000,1.27560693359375,4.602916717529297,-2.029845714569092,4.608065605163574
1652389089409638100,1.28563818359375,4.878459453582764,-1.965240478515625,5.595171928405762
1652389089419669000,1.2956689453125,5.197863578796387,-1.6636571884155273,5.955303192138672
1652389089429699800,1.305699951171875,5.566462993621826,-1.172818660736084,6.054323673248291
1652389089439730700,1.315730712890625,5.884807586669922,-0.6371402740478516,5.750208377838135
1652389089449761500,1.325761474609375,6.286623001098633,-0.02125406265258789,5.346673011779785
1652389089459792400,1.33579248046875,6.6344685554504395,0.6889681816101074,5.017019748687744
1652389089469823200,1.3458232421875,6.7442474365234375,1.4316143989562988,4.78136682510376
1652389089479854000,1.35585400390625,6.504084587097168,1.9701147079467773,4.7850775718688965
1652389089489885000,1.365885009765625,6.089309215545654,2.3881139755249023,4.969598293304443
1652389089499916000,1.375916015625,5.493356704711914,2.970364570617676,4.980710029602051
1652389089509947000,1.38594677734375,5.519806861877441,3.1103787422180176,5.124341011047363
1652389089519977700,1.395977783203125,4.449213027954102,3.8262062072753906,4.813873767852783
1652389089530008600,1.406008544921875,3.65051531791687,4.087445259094238,4.62876558303833
1652389089540039400,1.416039306640625,3.654674768447876,4.139387130737305,4.689347743988037
1652389089550070300,1.4260703125,2.7776808738708496,4.461996078491211,3.921980381011963
1652389089560101400,1.436101318359375,1.6216425895690918,3.88671612739563,3.084120273590088
1652389089570132200,1.44613232421875,1.0109269618988037,3.53617787361145,2.7143940925598145
1652389089580163000,1.4561630859375,0.49879002571105957,3.318044900894165,2.2874913215637207
1652389089590194000,1.46619384765625,0.18383216857910156,3.174527645111084,1.9087657928466797
1652389089600224800,1.476224853515625,0.05143427848815918,2.9981679916381836,1.5838193893432617
1652389089610255600,1.486255615234375,0.006025791168212891,2.6533594131469727,1.4383411407470703
1652389089620286500,1.496286376953125,0.22539997100830078,2.362687110900879,1.1001005172729492
1652389089630317600,1.506317626953125,0.4169809818267822,2.0243544578552246,1.0245647430419922
1652389089640348400,1.516348388671875,0.5907859802246094,1.6907072067260742,0.9302806854248047
1652389089650379300,1.526379150390625,0.6861190795898438,1.3703861236572266,0.8579292297363281
1652389089660410000,1.53641015625,0.6298620700836182,1.0318655967712402,0.8074150085449219
1652389089670407700,1.54640771484375,0.4612858295440674,0.6911396980285645,0.7391648292541504
1652389089680405200,1.5564052734375,0.4616553783416748,0.6899185180664062,0.510777473449707
1652389089690402800,1.56640283203125,0.3791167736053467,0.4169960021972656,0.7106409072875977
1652389089700400400,1.576400390625,0.09688687324523926,0.04022502899169922,0.7459321022033691
1652389089710398000,1.58639794921875,-0.24268126487731934,-0.2819533348083496,0.7905178070068359
1652389089720395500,1.5963955078125,-0.5692412853240967,-0.5302815437316895,0.7579421997070312
1652389089730393000,1.60639306640625,-0.7520099878311157,-0.7557830810546875,0.6860222816467285
1652389089740389400,1.616389404296875,-0.99238121509552,-0.9738907814025879,0.5450296401977539
1652389089750387000,1.626386962890625,-1.1878654956817627,-1.2044992446899414,0.4172697067260742
1652389089760384500,1.636384521484375,-1.3609719276428223,-1.4877705574035645,0.20214080810546875
1652389089770382000,1.646382080078125,-1.4949815273284912,-1.6454358100891113,-0.2932243347167969
1652389089780379600,1.656379638671875,-1.242254376411438,-1.6169953346252441,-0.9319915771484375
1652389089790377200,1.666377197265625,-0.9675376415252686,-1.3467211723327637,-1.230109691619873
1652389089800374800,1.676374755859375,-0.1455087661743164,-1.2639331817626953,-1.4595999717712402
1652389089810372400,1.686372314453125,0.26558685302734375,-1.2399892807006836,-1.485379695892334
1652389089820370000,1.696369873046875,0.6854152679443359,-1.2879014015197754,-1.3929448127746582
1652389089830367500,1.706367431640625,0.7353131771087646,-1.5284295082092285,-1.1705660820007324
1652389089840365000,1.716364990234375,0.6498994827270508,-1.6751799583435059,-0.9415841102600098
1652389089850362600,1.726362548828125,0.5558462142944336,-1.6661467552185059,-0.7857480049133301
1652389089860360200,1.736360107421875,0.5160093307495117,-1.5900039672851562,-0.6823744773864746
1652389089870357800,1.746357666015625,0.2971489429473877,-1.8104705810546875,-1.078749179840088
1652389089880355300,1.756355224609375,0.1748671531677246,-1.8643951416015625,-1.443528175354004
1652389089890353000,1.766352783203125,0.5596933364868164,-1.8106136322021484,-1.4665837287902832
1652389089900350500,1.7763505859375,0.8842146396636963,-1.8526930809020996,-1.1801385879516602
1652389089910348000,1.78634814453125,0.5737590789794922,-2.128636360168457,-1.4629874229431152
1652389089920345600,1.796345703125,1.0609204769134521,-2.2705016136169434,-1.1413283348083496
1652389089930343200,1.80634326171875,1.2589778900146484,-2.3768978118896484,-0.7380890846252441
1652389089940340700,1.8163408203125,1.3945093154907227,-2.570826530456543,-0.30027151107788086
1652389089950338300,1.82633837890625,1.8382313251495361,-2.6944947242736816,-0.09140348434448242
1652389089960336000,1.8363359375,2.415743827819824,-2.7760486602783203,-0.4986743927001953
1652389089970333400,1.84633349609375,2.894047975540161,-2.3123598098754883,-0.45859599113464355
1652389089980331000,1.8563310546875,2.803162097930908,-2.2772293090820312,-0.4818086624145508
1652389089990328300,1.866328369140625,2.1327807903289795,-2.398313522338867,-0.4316065311431885
1652389090000326000,1.876325927734375,1.0458006858825684,-2.1890077590942383,-0.4100320339202881
1652389090010323500,1.886323486328125,0.23564767837524414,-2.0001583099365234,-0.7286880016326904
1652389090020321000,1.896321044921875,-0.22766590118408203,-1.6994152069091797,-1.0048809051513672
1652389090030318600,1.906318603515625,-0.3566422462463379,-1.2396059036254883,-0.7874723672866821
1652389090040317400,1.9163173828125,-0.14625263214111328,-1.1138038635253906,0.1576390266418457
1652389090050315000,1.92631494140625,-0.0341339111328125,-1.1173686981201172,0.7637815475463867
1652389090060312600,1.9363125,0.5861434936523438,-0.8091001510620117,1.4107282161712646
1652389090070310100,1.94631005859375,0.4693765640258789,-0.8212718963623047,1.6962777376174927
1652389090080307700,1.9563076171875,-0.36614513397216797,-0.5649833679199219,3.029353380203247
1652389090090305300,1.96630517578125,-0.043996334075927734,-0.2554950714111328,2.869483470916748
1652389090100302600,1.976302490234375,-2.3443803787231445,0.2556905746459961,3.2220468521118164
1652389090110300200,1.986300048828125,-2.3733627796173096,1.0145435333251953,2.2276699542999268
1652389090120297700,1.996297607421875,-1.469344139099121,0.9696307182312012,2.118021011352539
1652389090130295300,2.00629541015625,-2.460559129714966,0.8357000350952148,2.3620638847351074
1652389090140292900,2.01629296875,-3.8899168968200684,0.7874040603637695,2.604351758956909
1652389090150290400,2.02629052734375,-6.670547008514404,1.5778560638427734,2.6267518997192383
1652389090160288000,2.0362880859375,-0.6737923622131348,0.6111946105957031,0.9465434551239014
1652389090170284500,2.046284423828125,1.663865566253662,-0.4599151611328125,1.0517387390136719
1652389090180282000,2.0562822265625,2.532878875732422,-1.0917844772338867,0.29668036103248596
1652389090190279700,2.06627978515625,5.513646125793457,-1.834153175354004,-0.28408268094062805
1652389090200277200,2.07627734375,6.395452499389648,-2.031855583190918,-0.6893556118011475
1652389090210274800,2.08627490234375,-0.549628734588623,-0.8713464736938477,-1.1672509908676147
1652389090220272400,2.0962724609375,-2.770277738571167,-0.03197765350341797,-1.2370846271514893
1652389090230270000,2.10627001953125,0.44600439071655273,0.6396760940551758,-0.9076396226882935
1652389090240267500,2.116267578125,0.821103572845459,0.5055751800537109,-0.040097564458847046
1652389090250265000,2.12626513671875,0.7335696220397949,0.4407663345336914,0.08269557356834412
1652389090260262700,2.1362626953125,-0.8680858612060547,1.4976816177368164,0.8614011406898499
1652389090270260200,2.14626025390625,-4.546995162963867,3.4012980461120605,1.0873255729675293
1652389090280257800,2.1562578125,-1.1671738624572754,2.819733142852783,-0.5638571977615356
1652389090290255400,2.16625537109375,-1.6389641761779785,1.5035696029663086,-0.015461862087249756
1652389090300253000,2.1762529296875,-1.6334338188171387,1.500807285308838,0.05379021167755127
1652389090310250500,2.18625048828125,-4.5561723709106445,3.2106523513793945,0.15693897008895874
1652389090320248000,2.196248046875,-0.5438127517700195,3.0997314453125,0.05730581283569336
1652389090330245600,2.20624560546875,-0.45638275146484375,3.1589393615722656,0.06961292028427124
1652389090340243200,2.2162431640625,0.5457406044006348,1.9913225173950195,-0.23617208003997803
1652389090350240800,2.22624072265625,0.130340576171875,1.225764274597168,-0.9789273738861084
1652389090360238300,2.23623828125,-0.617952823638916,1.301140308380127,-1.8126758337020874
1652389090370236000,2.24623583984375,-0.8492445945739746,0.9354238510131836,-1.3601388931274414
1652389090380233500,2.2562333984375,-0.30117273330688477,1.210512638092041,-0.06945812702178955
1652389090390231000,2.26623095703125,-0.2881202697753906,1.0429587364196777,0.016481637954711914
1652389090400228600,2.276228515625,-0.25559091567993164,1.0665373802185059,-0.016184628009796143
1652389090410226200,2.28622607421875,0.5449333190917969,0.314852237701416,-0.5090770125389099
1652389090420223700,2.2962236328125,1.7181673049926758,-1.3331022262573242,-1.1405949592590332
1652389090430221300,2.30622119140625,0.15067768096923828,-1.328618049621582,-1.319980502128601
1652389090440219000,2.316218994140625,-0.8059091567993164,-1.0961980819702148,-0.9732398390769958
1652389090450249700,2.326249755859375,-1.0950312614440918,-1.0736217498779297,-0.5767950415611267
1652389090460280600,2.336280517578125,-0.9041662216186523,-0.6224241256713867,-0.3818446397781372
1652389090470312400,2.3463125,-1.297943115234375,-0.13076496124267578,-0.1753615140914917
1652389090480343300,2.35634326171875,-0.9536952972412109,-0.04443931579589844,-0.21930521726608276
1652389090490407700,2.36640771484375,-0.49294519424438477,-0.4662609100341797,-0.7064051628112793
1652389090500471800,2.376471923828125,-0.23455476760864258,-1.0856094360351562,-0.8770630359649658
1652389090510569200,2.3865693359375,-0.12111711502075195,-1.363870620727539,-0.8950650691986084
1652389090520667000,2.3966669921875,0.040596961975097656,-1.0269689559936523,-1.1565728187561035
1652389090530764300,2.406764404296875,-0.33449840545654297,-0.773223876953125,-0.6757078170776367
1652389090540862000,2.416862060546875,-0.3350644111633301,-0.774378776550293,-0.6656505465507507
1652389090550959400,2.42695947265625,0.03569221496582031,-0.24411869049072266,-0.846794605255127
1652389090561057000,2.43705712890625,0.07540130615234375,0.08494853973388672,-0.7023995518684387
1652389090571154400,2.447154541015625,0.3669877052307129,0.285614013671875,-0.6145322918891907
1652389090581252000,2.457252197265625,0.5422048568725586,0.4853973388671875,-0.668696403503418
1652389090591383000,2.467383056640625,0.5342326164245605,0.47881221771240234,-0.6500893235206604
1652389090601513700,2.477513671875,0.5716691017150879,0.877629280090332,-0.33893948793411255
1652389090611644700,2.487644775390625,1.343630313873291,1.175577163696289,-0.44972288608551025
1652389090621775400,2.497775390625,0.6872472763061523,0.5981583595275879,-0.739521324634552
1652389090631906300,2.50790625,0.016529560089111328,0.9967074394226074,-1.4331843852996826
1652389090642037200,2.518037353515625,-0.3660130500793457,1.2751164436340332,-1.8190016746520996
1652389090652201500,2.528201416015625,0.06947183609008789,0.9398488998413086,-0.3640196919441223
1652389090662365400,2.538365478515625,0.6369624137878418,1.3830695152282715,-0.8282339572906494
1652389090672529700,2.54852978515625,0.37295055389404297,1.4204773902893066,-0.3617370128631592
1652389090682694000,2.55869384765625,0.3996744155883789,1.4342093467712402,-0.3370848298072815
1652389090692891400,2.568891357421875,-0.294344425201416,1.2149577140808105,-0.4531998634338379
1652389090703089000,2.5790888671875,-0.9868168830871582,0.9152936935424805,-1.1639658212661743
1652389090713286400,2.589286376953125,-1.6687407493591309,0.8025145530700684,-1.774344801902771
1652389090723484000,2.59948388671875,-1.5380191802978516,0.5745334625244141,-1.9738197326660156
1652389090733681400,2.609681396484375,-1.5549876689910889,0.2210073471069336,-2.0253899097442627
1652389090743879000,2.61987890625,-1.527552843093872,0.23491382598876953,-2.003563404083252
1652389090754043100,2.630043212890625,-1.6024832725524902,0.4399394989013672,-1.8087328672409058
1652389090764207400,2.640207275390625,-1.6501388549804688,0.7067461013793945,-1.6543481349945068
1652389090774371600,2.65037158203125,-1.7470228672027588,0.37940502166748047,-1.2498478889465332
1652389090784535800,2.660535888671875,-1.4584927558898926,0.1881275177001953,-0.9403791427612305
1652389090794666500,2.67066650390625,-0.6472687721252441,-0.07052040100097656,-0.6801639795303345
1652389090804797400,2.68079736328125,-0.23938798904418945,-0.11139678955078125,-0.49966907501220703
1652389090814894800,2.690894775390625,-0.3933753967285156,-0.12769031524658203,-0.5776047706604004
1652389090824992500,2.700992431640625,-0.6212115287780762,0.12761688232421875,-0.8521953821182251
1652389090835090000,2.71108984375,-0.47636985778808594,0.0920858383178711,-0.9288620948791504
1652389090845187600,2.7211875,0.2395009994506836,-0.14418697357177734,-0.6495057344436646
1652389090855318300,2.731318359375,1.101266860961914,-0.26905250549316406,-0.42684364318847656
1652389090865449200,2.74144921875,2.0944666862487793,-0.6444129943847656,-0.09495663642883301
1652389090875580200,2.751580078125,2.1735973358154297,-0.8262653350830078,-0.15809297561645508
1652389090885711000,2.761711181640625,1.8292241096496582,-0.4990253448486328,-0.46875321865081787
1652389090895808500,2.77180859375,1.5776753425598145,-0.19282245635986328,-0.48664987087249756
1652389090905906000,2.781906005859375,1.0623455047607422,0.014151573181152344,-0.03219461441040039
1652389090916003600,2.792003662109375,0.1586456298828125,0.22008132934570312,1.0727994441986084
1652389090926101000,2.80210107421875,-0.1486825942993164,0.3414726257324219,1.4874656200408936
1652389090936232000,2.81223193359375,-0.4616568088531494,0.7810468673706055,1.088816523551941
1652389090946363000,2.82236279296875,-0.22226858139038086,0.614710807800293,1.4571670293807983
1652389090956460300,2.832460205078125,-0.989546537399292,0.49673938751220703,1.4351171255111694
1652389090966557700,2.8425576171875,-1.0154483318328857,0.542724609375,1.1023509502410889
1652389090976688600,2.852688720703125,-0.9457473754882812,0.5767955780029297,1.067887544631958
1652389090986819600,2.862819580078125,-0.41969752311706543,0.4673643112182617,0.75450599193573
1652389090996950500,2.872950439453125,-0.34547853469848633,0.5026988983154297,0.7115947008132935
1652389091007081200,2.883081298828125,0.021300554275512695,0.4426441192626953,1.1479448080062866
1652389091017245400,2.893245361328125,-0.1851062774658203,0.4529075622558594,0.9281436800956726
1652389091027409700,2.90340966796875,-0.2772042751312256,0.2048044204711914,0.28528332710266113
1652389091037574000,2.913573974609375,-0.3866879940032959,0.13502788543701172,0.4540749788284302
1652389091047738000,2.923738037109375,0.22292470932006836,-0.48940563201904297,1.659835696220398
1652389091057935600,2.933935546875,0.29103779792785645,0.03968048095703125,1.3181613683700562
1652389091068133000,2.944133056640625,-0.17759346961975098,0.4828977584838867,1.5904473066329956
1652389091078364000,2.954364013671875,-0.16343092918395996,0.8733682632446289,2.564303398132324
1652389091088594700,2.9645947265625,-2.1719954013824463,1.755530834197998,3.4631638526916504
1652389091098859000,2.97485888671875,-1.8906854391098022,3.0154714584350586,4.461739540100098
1652389091109123000,2.985123046875,-2.7802629470825195,5.104130744934082,3.0435662269592285
1652389091119420700,2.995420654296875,-1.8559939861297607,3.721681594848633,6.8621931076049805
1652389091129718000,3.005718017578125,-0.17179131507873535,-0.8853311538696289,3.6423285007476807
1652389091140049000,3.016048828125,1.7384157180786133,-2.301206588745117,-3.633105516433716
1652389091150379800,3.0263798828125,2.16633677482605,-2.3051576614379883,-6.384073734283447
1652389091160677400,3.036677490234375,2.0795631408691406,-1.711359977722168,-6.9410529136657715
1652389091170974700,3.046974609375,0.9711954593658447,-2.911831855773926,-6.855860710144043
1652389091181305600,3.0573056640625,1.0518999099731445,-2.899538040161133,-6.9272589683532715
1652389091191636500,3.067636474609375,-0.8488630056381226,-2.093663215637207,-3.6614346504211426
1652389091202000600,3.078000732421875,-1.6061431169509888,-2.3314075469970703,-2.2853055000305176
1652389091212364800,3.08836474609375,-2.6129918098449707,-4.618194580078125,-1.007643222808838
1652389091222762200,3.09876220703125,-1.49268639087677,-4.542928695678711,-1.102750301361084
1652389091233159700,3.10915966796875,-0.5759561061859131,-3.463855743408203,-0.6567319631576538
1652389091243523800,3.11952392578125,-0.31336987018585205,-2.641903877258301,-0.14277538657188416
1652389091253888000,3.129887939453125,0.1796872615814209,-3.822633743286133,1.1393262147903442
1652389091264252200,3.140252197265625,0.16397786140441895,-4.311327934265137,1.1234670877456665
1652389091274616000,3.150615966796875,-0.8620476126670837,-0.9557380676269531,0.054878056049346924
1652389091284947000,3.160947021484375,-0.5748163461685181,0.3286905288696289,0.6599442958831787
1652389091295277800,3.17127783203125,0.5880947113037109,-1.4291515350341797,1.5318306684494019
1652389091305575200,3.1815751953125,-0.1246720552444458,-1.0511703491210938,0.5031375885009766
1652389091315872800,3.191872802734375,-0.5336829423904419,-0.7059516906738281,0.34544795751571655
1652389091326136800,3.20213671875,0.3946017026901245,0.40598583221435547,0.19997745752334595
1652389091336401200,3.212401123046875,0.4622430205345154,1.5814838409423828,0.326081246137619
1652389091346665200,3.222665283203125,0.10971111059188843,1.3339567184448242,0.14227178692817688
1652389091356929300,3.23292919921875,-0.09876185655593872,0.8533973693847656,-0.07763218879699707
1652389091367160000,3.24316015625,0.10557109117507935,1.2933826446533203,0.26178720593452454
1652389091377391000,3.25339111328125,0.19221878051757812,0.6905422210693359,0.4694368541240692
1652389091387588600,3.263588623046875,-0.1043785810470581,0.5221986770629883,-0.22544288635253906
1652389091397786000,3.2737861328125,-0.052883803844451904,0.5263471603393555,-0.20101571083068848
1652389091407950000,3.2839501953125,-0.46820080280303955,-0.5272226333618164,0.08713036775588989
1652389091418114300,3.2941142578125,-0.7061383724212646,-0.5873813629150391,0.39898765087127686
1652389091428278500,3.304278564453125,-0.6654613018035889,-0.5842227935791016,0.4381757378578186
1652389091438442800,3.31444287109375,0.13411879539489746,0.599156379699707,-0.13714294135570526
1652389091448607000,3.32460693359375,0.04717496037483215,0.34517574310302734,-0.4879940152168274
1652389091458771000,3.33477099609375,-0.6030328273773193,-0.1752948760986328,-0.5082746148109436
1652389091468935200,3.34493505859375,-0.8472099900245667,-0.44975852966308594,-0.3217841386795044
1652389091479099400,3.355099365234375,1.1389888525009155,0.6015911102294922,-0.7418916821479797
1652389091489230300,3.365230224609375,-0.02347758412361145,1.0881414413452148,-1.100830316543579
1652389091499361000,3.375361083984375,-0.6425211429595947,-0.28766536712646484,-0.531862199306488
1652389091509458700,3.385458740234375,0.08734080195426941,0.24415874481201172,-0.685082197189331
1652389091519556000,3.39555615234375,0.5233325958251953,0.489837646484375,-0.16597872972488403
1652389091529620200,3.4056201171875,-0.3206099271774292,0.7649564743041992,-0.1266375482082367
1652389091539684600,3.4156845703125,-0.3851519823074341,0.7617921829223633,-0.12471389770507812
1652389091549748700,3.425748779296875,0.42737674713134766,1.8127398490905762,-0.2595542371273041
1652389091559812900,3.435812744140625,0.150127112865448,1.4689464569091797,-0.06176745891571045
1652389091569877200,3.445877197265625,-0.1704397201538086,0.05015373229980469,-0.1611369252204895
1652389091579941400,3.45594140625,-0.7206134796142578,-1.476959228515625,-0.34707704186439514
1652389091590005500,3.466005615234375,-0.6144388318061829,-2.052554130554199,-0.4452289640903473
1652389091600070000,3.47606982421875,-0.12871471047401428,-0.9073543548583984,-1.099717140197754
1652389091610134000,3.486134033203125,0.5058091878890991,0.46370887756347656,-0.3846651613712311
1652389091620198100,3.4961982421875,-0.5443865656852722,0.6708087921142578,-0.18846046924591064
1652389091630262500,3.506262451171875,0.20492002367973328,0.4877481460571289,-0.6012903451919556
1652389091640326700,3.51632666015625,0.9170910120010376,0.58984375,-0.6400972604751587
1652389091650390800,3.526390869140625,-0.0287400484085083,-0.014171600341796875,-0.610702633857727
1652389091660455000,3.536454833984375,0.13184323906898499,-0.12488651275634766,-0.6562035083770752
1652389091670519300,3.546519287109375,0.2336316555738449,1.6483945846557617,-0.4475793242454529
1652389091680583400,3.55658349609375,-0.3472622036933899,3.029116630554199,-0.463011234998703
1652389091690681000,3.56668115234375,0.5775235891342163,1.9368114471435547,-0.5923994779586792
1652389091700778500,3.576778564453125,0.5638511776924133,3.3038320541381836,-0.9315932393074036
1652389091710876200,3.586876220703125,-0.4560093581676483,3.8491506576538086,-0.1517227590084076
1652389091720973600,3.5969736328125,0.2911945581436157,4.4887166023254395,-0.099996417760849
1652389091731037700,3.60703759765625,0.5259549617767334,4.049520492553711,0.19581089913845062
1652389091741102000,3.61710205078125,0.832306444644928,2.21927547454834,1.146032691001892
1652389091751133000,3.6271328125,1.4646767377853394,0.9939079284667969,1.1761540174484253
1652389091761163800,3.637163818359375,1.2759760618209839,-0.0867452621459961,0.235351100564003
1652389091771194600,3.647194580078125,-0.07903844118118286,-1.2037906646728516,0.01156557071954012
1652389091781225500,3.6572255859375,0.39330780506134033,-2.226900100708008,0.18868805468082428
1652389091791256300,3.66725634765625,0.3359062671661377,-0.6974773406982422,0.26214608550071716
1652389091801287200,3.677287109375,0.21271419525146484,0.31496524810791016,0.30287617444992065
1652389091811318000,3.687318115234375,-0.5982693433761597,1.6793460845947266,0.2982447147369385
1652389091821349000,3.69734912109375,-0.024735957384109497,-1.9197626113891602,-0.42693835496902466
1652389091831380000,3.7073798828125,-0.7857990264892578,-6.342253684997559,-0.4739387631416321
1652389091841410800,3.717410888671875,-0.39388856291770935,-6.4235992431640625,-0.42219293117523193
1652389091851441700,3.727441650390625,0.6332614421844482,-2.472100257873535,0.39548641443252563
1652389091861472500,3.737472412109375,1.0247756242752075,1.161428451538086,0.7085599899291992
1652389091871536600,3.74753662109375,1.224114179611206,2.318978786468506,1.0211410522460938
1652389091881601000,3.75760107421875,1.24241042137146,1.5390214920043945,1.3191148042678833
1652389091891665200,3.7676650390625,1.5889308452606201,-0.3813362121582031,0.8479135036468506
1652389091901729300,3.777729248046875,-1.7616980075836182,-2.6638526916503906,1.2781823873519897
1652389091911793700,3.787793701171875,-1.0450047254562378,-2.288318634033203,1.4354526996612549
1652389091921857800,3.79785791015625,-0.21593934297561646,-0.8684024810791016,1.9945647716522217
1652389091931922000,3.807921875,0.17157895863056183,-0.2668266296386719,0.4713117182254791
1652389091941986300,3.817986328125,0.9191738963127136,-0.9080076217651367,0.47693124413490295
1652389091952050400,3.828050537109375,0.7301574349403381,-0.06744670867919922,1.1160986423492432
1652389091962114600,3.838114501953125,1.1362206935882568,-0.23769569396972656,0.08421435952186584
1652389091972178700,3.8481787109375,0.7143410444259644,0.10414981842041016,-0.0373893678188324
1652389091982243000,3.8582431640625,0.49078232049942017,0.16095352172851562,-0.1640782356262207
1652389091992274000,3.86827392578125,0.3596266508102417,0.1171560287475586,-0.17412161827087402
1652389092002304800,3.8783046875,0.2822936773300171,-0.1301279067993164,-0.1575659066438675
1652389092012335600,3.888335693359375,0.30998140573501587,-0.13073062896728516,-0.1586715430021286
1652389092022366500,3.898366455078125,0.11698584258556366,-0.46404552459716797,-0.16479496657848358
1652389092032397300,3.908397216796875,0.1958501935005188,-1.0366582870483398,-0.2899181842803955
1652389092042428400,3.918428466796875,0.3924946188926697,-1.2452783584594727,-0.22429697215557098
1652389092052459300,3.928459228515625,0.41300249099731445,-1.673996925354004,-0.2513733506202698
1652389092062490000,3.938489990234375,0.519577145576477,-2.0520925521850586,-0.37513095140457153
1652389092072521000,3.94852099609375,0.4812995195388794,-1.4070367813110352,-0.52619469165802
1652389092082551800,3.9585517578125,-0.13019859790802002,0.052570343017578125,0.28800836205482483
1652389092092582700,3.968582763671875,1.1698734760284424,2.1228370666503906,0.3634657561779022
1652389092102613500,3.978613525390625,0.9194157123565674,1.992344856262207,0.10752776265144348
1652389092112644600,3.98864453125,0.8916851282119751,2.5694050788879395,-0.66764235496521
1652389092122675500,3.998675537109375,1.3515957593917847,2.8370652198791504,-0.6499220728874207
1652389092132706300,4.008706298828125,1.5072389841079712,2.166057586669922,-0.4284493029117584
1652389092142737200,4.018737060546875,1.5689246654510498,1.6864500045776367,-0.3913800120353699
1652389092152768000,4.02876806640625,0.35065406560897827,-0.8451051712036133,-0.04536035656929016
1652389092162798800,4.038798828125,1.063130259513855,-0.7887067794799805,0.12593379616737366
1652389092172796400,4.04879638671875,0.5638963580131531,-0.8828563690185547,0.2598095238208771
1652389092182794000,4.0587939453125,0.5748734474182129,-1.0719823837280273,0.3413761258125305
1652389092192791600,4.06879150390625,0.8021456003189087,-1.1145439147949219,0.39948445558547974
1652389092202789000,4.0787890625,0.9874049425125122,-0.9798641204833984,0.4808080494403839
1652389092212786700,4.08878662109375,1.057199239730835,-0.8118429183959961,0.46990594267845154
1652389092222784300,4.0987841796875,1.1857324838638306,-0.6535892486572266,0.4650346636772156
1652389092232781800,4.10878173828125,1.0382901430130005,-0.4810924530029297,0.289030522108078
1652389092242779400,4.118779296875,1.5964856147766113,-0.37576866149902344,0.5543663501739502
1652389092252777000,4.12877685546875,1.9709157943725586,-0.24423694610595703,0.5807559490203857
1652389092262774500,4.1387744140625,2.1236937046051025,-0.24207019805908203,0.7662115097045898
1652389092272772000,4.148772216796875,2.097158193588257,-0.2543630599975586,0.8972907066345215
1652389092282769700,4.158769775390625,2.4988131523132324,-0.24280834197998047,1.1331583261489868
1652389092292767200,4.168767333984375,2.2622673511505127,-0.19071292877197266,1.2672200202941895
1652389092302764800,4.178764892578125,2.2738187313079834,-0.12676429748535156,1.2959634065628052
1652389092312762400,4.188762451171875,2.16294527053833,-0.07733631134033203,1.4252279996871948
1652389092322760000,4.198760009765625,2.1347827911376953,-0.1310882568359375,1.785304307937622
1652389092332757500,4.208757568359375,1.7757749557495117,-0.18992328643798828,2.16970157623291
1652389092342755000,4.218755126953125,1.2877117395401,-0.47632503509521484,2.4392898082733154
1652389092352752600,4.228752685546875,0.7123304009437561,-0.9372673034667969,2.6012163162231445
1652389092362750000,4.23875,0.5086725950241089,-1.08892822265625,2.5339982509613037
1652389092372747500,4.24874755859375,0.0026966631412506104,-1.1540374755859375,2.0988667011260986
1652389092382745000,4.2587451171875,-0.41559165716171265,-0.986811637878418,1.5297467708587646
1652389092392742700,4.26874267578125,-0.8314533829689026,-0.9158039093017578,0.7752621173858643
1652389092402740200,4.278740234375,-0.7348817586898804,-0.8502540588378906,0.15105634927749634
1652389092412737800,4.28873779296875,-1.231155276298523,-0.8168296813964844,-0.6052595376968384
1652389092422735400,4.2987353515625,-1.6838041543960571,-0.8037796020507812,-1.245699167251587
1652389092432733000,4.30873291015625,-1.972386360168457,-0.7876014709472656,-1.545686960220337
1652389092442730500,4.31873046875,-2.057892084121704,-0.7948436737060547,-1.5837788581848145
1652389092452728000,4.32872802734375,-1.8593196868896484,-0.3439931869506836,-1.4925369024276733
1652389092462725600,4.3387255859375,-1.7496776580810547,0.24465274810791016,-1.1243126392364502
1652389092472723200,4.34872314453125,-1.9642348289489746,0.9834661483764648,-0.9527299404144287
1652389092482720800,4.358720703125,-2.035163402557373,0.9733257293701172,-0.9977908730506897
1652389092492718300,4.36871826171875,-1.8866537809371948,1.2297182083129883,-0.2672390937805176
1652389092502716000,4.3787158203125,-1.9000988006591797,1.2143735885620117,0.4559154510498047
1652389092512713500,4.38871337890625,-1.9425325393676758,1.2075462341308594,0.43210506439208984
1652389092522711000,4.3987109375,-1.544910192489624,0.11887645721435547,0.8243682384490967
1652389092532708600,4.40870849609375,-1.6439251899719238,-0.9327306747436523,0.8827514052391052
1652389092542706200,4.4187060546875,-1.9310188293457031,-1.8146390914916992,1.0655841827392578
1652389092552703700,4.428703857421875,-2.2948081493377686,-2.2088918685913086,1.2028131484985352
1652389092562701300,4.438701416015625,-2.786998748779297,-2.3016481399536133,1.2985622882843018
1652389092572699000,4.448698974609375,-3.0406737327575684,-2.137287139892578,1.4068169593811035
1652389092582696400,4.458696533203125,-2.987396240234375,-1.146367073059082,0.9629479646682739
1652389092592694000,4.468694091796875,-2.684075355529785,-0.43489837646484375,0.5052051544189453
1652389092602691600,4.478691650390625,-1.9144210815429688,0.4132051467895508,-0.07370913028717041
1652389092612689200,4.488689208984375,-1.380957841873169,0.9467449188232422,-0.6145017147064209
1652389092622686700,4.498686767578125,-0.4736720323562622,1.1142921447753906,-0.8828381299972534
1652389092632684300,4.508684326171875,0.043200016021728516,1.4315309524536133,-1.1150190830230713
1652389092642681600,4.518681640625,0.13810455799102783,1.2715568542480469,-1.2006076574325562
1652389092652679200,4.52867919921875,0.07628524303436279,1.093770980834961,-0.9470269680023193
1652389092662676700,4.5386767578125,-0.3473266363143921,0.7596073150634766,-0.516167163848877
1652389092672674300,4.54867431640625,-0.34469664096832275,0.7212076187133789,-0.35440874099731445
1652389092682671900,4.558671875,-0.29836905002593994,0.22698020935058594,0.11269080638885498
1652389092692669400,4.56866943359375,-0.4503207206726074,0.29172420501708984,0.19879913330078125
1652389092702667000,4.5786669921875,-0.3527519702911377,0.1543560028076172,0.4486699104309082
1652389092712664600,4.58866455078125,-0.31696927547454834,0.4877910614013672,0.2438662052154541
1652389092722662100,4.598662109375,0.03749394416809082,0.5385675430297852,0.30485236644744873
1652389092732659700,4.60865966796875,0.06186270713806152,1.394270896911621,-0.25809359550476074
1652389092742657300,4.6186572265625,-0.5565822124481201,0.6803035736083984,-0.4728933572769165
1652389092752654800,4.62865478515625,0.4868735074996948,1.8605332374572754,-0.960029125213623
1652389092762652400,4.63865234375,0.2925835847854614,2.115959644317627,-0.9941325783729553
1652389092772650000,4.64864990234375,0.3231081962585449,1.9534831047058105,-0.8470820188522339
1652389092782647600,4.6586474609375,0.3487260341644287,2.0380301475524902,-0.6584962606430054
1652389092792645000,4.66864501953125,0.498260498046875,2.106050491333008,-0.40458977222442627
1652389092802642700,4.678642578125,0.7198823690414429,2.118701457977295,-0.14368343353271484
1652389092812640300,4.68864013671875,0.8767225742340088,2.0151214599609375,0.24397456645965576
1652389092822637800,4.698637939453125,0.9755855798721313,1.729461669921875,0.7115999460220337
1652389092832635400,4.708635498046875,1.157362461090088,1.3010873794555664,1.2735886573791504
1652389092842633000,4.718633056640625,1.3806029558181763,0.8052749633789062,1.661453127861023
1652389092852630500,4.728630615234375,1.4428555965423584,0.3030662536621094,1.9954410791397095
1652389092862628000,4.738628173828125,1.2229875326156616,-0.18994998931884766,2.3246378898620605
1652389092872625400,4.74862548828125,1.3124821186065674,-0.5842971801757812,2.446488618850708
1652389092882623000,4.758623046875,1.5471394062042236,-0.8316822052001953,2.180068016052246
1652389092892620500,4.76862060546875,1.819189429283142,-1.110346794128418,1.6818269491195679
1652389092902618000,4.7786181640625,2.0435523986816406,-1.107365608215332,1.3001251220703125
1652389092912615700,4.78861572265625,1.9784815311431885,-0.7801122665405273,1.2764809131622314
1652389092922613200,4.79861328125,1.5825520753860474,-0.28423500061035156,1.4272162914276123
1652389092932610800,4.80861083984375,1.1861952543258667,0.06175994873046875,1.5945892333984375
1652389092942608400,4.8186083984375,0.876376748085022,0.2520732879638672,1.6889095306396484
1652389092952606000,4.82860595703125,0.02842879295349121,-1.0389699935913086,1.419757604598999
1652389092962603500,4.838603515625,-1.0276756286621094,-3.616410255432129,1.0588631629943848
1652389092972601000,4.84860107421875,-1.4620579481124878,-7.216836929321289,0.7853217124938965
1652389092982598700,4.8585986328125,-1.2829060554504395,-9.699470520019531,0.3418300151824951
1652389092992596200,4.86859619140625,-2.3952105045318604,-8.849234580993652,-1.600767731666565
1652389093002593800,4.87859375,-3.5506272315979004,-5.938282012939453,-3.8621416091918945
1652389093012591400,4.88859130859375,-3.8392577171325684,-3.207521438598633,-5.138091087341309
1652389093022589000,4.8985888671875,-3.2529635429382324,-0.6025552749633789,-5.436403751373291
1652389093032586500,4.90858642578125,-2.367527961730957,0.9755849838256836,-4.71021842956543
1652389093042584000,4.918583984375,-1.9796316623687744,1.6984224319458008,-4.0756940841674805
1652389093052581600,4.92858154296875,-1.4696663618087769,2.147726535797119,-3.950779914855957
1652389093062579200,4.9385791015625,-1.1409602165222168,2.4262242317199707,-3.7065768241882324
1652389093072576500,4.948576416015625,-0.7461808323860168,2.865696430206299,-3.3118772506713867
1652389093082574000,4.958573974609375,-0.48748981952667236,2.986584186553955,-2.6138148307800293
1652389093092571600,4.968571533203125,-0.45744574069976807,2.721893787384033,-2.107912540435791
1652389093102569200,4.9785693359375,-0.48647910356521606,2.186148166656494,-2.0896575450897217
1652389093112566800,4.98856689453125,-0.882504940032959,1.465250015258789,-2.4137256145477295
1652389093122564400,4.998564453125,-1.2350876331329346,0.27703380584716797,-2.1673789024353027
1652389093132562000,5.00856201171875,-1.8539714813232422,-0.8239536285400391,-2.5633556842803955
1652389093142559500,5.0185595703125,-1.47963285446167,-1.9179306030273438,-2.3980960845947266
1652389093152557000,5.02855712890625,-1.1104400157928467,-2.697549819946289,-2.5717992782592773
1652389093162554600,5.0385546875,-1.0768691301345825,-2.6796798706054688,-2.49039363861084
1652389093172552200,5.04855224609375,-0.6340893507003784,-2.7444705963134766,-2.4169247150421143
1652389093182549800,5.0585498046875,-0.21621763706207275,-2.142125129699707,-2.0191848278045654
1652389093192547300,5.06854736328125,0.023197591304779053,-1.0725641250610352,-1.5718936920166016
1652389093202545000,5.078544921875,0.270912230014801,0.37076663970947266,-1.1543549299240112
1652389093212542500,5.08854248046875,0.6932247281074524,1.2948970794677734,-0.6623371839523315
1652389093222540000,5.0985400390625,1.2370399236679077,1.8480863571166992,-0.07071077823638916
1652389093232537600,5.10853759765625,1.573075532913208,2.3008923530578613,0.3368961811065674
1652389093242535200,5.11853515625,1.6672090291976929,2.53391695022583,0.6191225051879883
1652389093252532700,5.12853271484375,0.676429808139801,2.2457056045532227,0.8080383539199829
1652389093262530300,5.1385302734375,0.18472474813461304,1.9377632141113281,0.9001824855804443
1652389093272528000,5.14852783203125,-0.2950550615787506,1.3804130554199219,1.0188417434692383
1652389093282525400,5.158525390625,-0.917627215385437,0.6507587432861328,0.9075185060501099
1652389093292523000,5.16852294921875,-1.2175912857055664,-0.004100799560546875,0.7636356949806213
1652389093302520600,5.1785205078125,-1.3510868549346924,-0.4066028594970703,0.5133005976676941
1652389093312518100,5.18851806640625,-0.5570428967475891,-0.7603330612182617,0.6246258020401001
1652389093322515700,5.198515625,0.009345799684524536,-1.0011062622070312,0.611937940120697
1652389093332513300,5.20851318359375,0.16173261404037476,-0.9812812805175781,0.3532907962799072
1652389093342510800,5.2185107421875,1.0744807720184326,-0.7974262237548828,0.6084206700325012
1652389093352508400,5.22850830078125,0.9481067657470703,-0.2752256393432617,0.205322265625
1652389093362505700,5.238505615234375,1.0910314321517944,0.21205520629882812,0.19212520122528076
1652389093372503300,5.24850341796875,1.079606533050537,0.5546817779541016,0.28125911951065063
1652389093382500900,5.2585009765625,0.21660035848617554,0.7647609710693359,0.27097219228744507
1652389093392498400,5.26849853515625,1.2054266929626465,1.1657276153564453,0.3493807911872864
1652389093402496000,5.27849609375,1.1930631399154663,1.158848762512207,0.665859580039978
1652389093412493600,5.28849365234375,1.013237714767456,1.1472101211547852,0.37020498514175415
1652389093422491100,5.2984912109375,1.0893259048461914,1.1447372436523438,0.3755573034286499
1652389093432488700,5.30848876953125,1.549973726272583,1.3956689834594727,0.44371140003204346
1652389093442486300,5.318486328125,1.9284870624542236,1.3259716033935547,0.5170301795005798
1652389093452483800,5.32848388671875,1.253705382347107,1.0000438690185547,0.6418903470039368
1652389093462481400,5.3384814453125,2.2130048274993896,0.9756603240966797,0.29652535915374756
1652389093472479000,5.34847900390625,2.31306791305542,0.4968376159667969,0.6282488703727722
1652389093482476500,5.3584765625,2.2228875160217285,0.32454586029052734,-0.19846200942993164
1652389093492474000,5.36847412109375,2.482950210571289,-0.06751728057861328,0.002497732639312744
1652389093502471700,5.3784716796875,2.3578615188598633,-0.33496665954589844,-0.2143493890762329
1652389093512469200,5.38846923828125,3.229518413543701,-0.8822641372680664,0.32723259925842285
1652389093522466800,5.398466796875,2.9326109886169434,-1.265732765197754,0.6102347373962402
1652389093532464400,5.40846435546875,2.988044500350952,-1.4756603240966797,0.8630409240722656
1652389093542462000,5.4184619140625,2.799623489379883,-1.6013689041137695,1.1583002805709839
1652389093552459500,5.42845947265625,2.7517802715301514,-1.6000757217407227,1.1486427783966064
1652389093562457000,5.43845703125,2.519317150115967,-1.661123275756836,1.7495923042297363
1652389093572454700,5.44845458984375,2.2259767055511475,-1.7604055404663086,2.205191135406494
1652389093582452200,5.4584521484375,1.7178709506988525,-1.7660093307495117,2.4592108726501465
1652389093592449800,5.46844970703125,1.0580815076828003,-1.6779870986938477,2.467993974685669
1652389093602447400,5.478447265625,-0.031028758734464645,-1.5350761413574219,2.005380630493164
1652389093612445000,5.48844482421875,-1.026930570602417,-1.3808937072753906,1.418928861618042
1652389093622442500,5.4984423828125,-2.0088272094726562,-1.053175926208496,0.8468457460403442
1652389093632440000,5.508440185546875,-2.2650930881500244,-0.3734588623046875,0.3483234643936157
1652389093642437600,5.518437744140625,-2.2527108192443848,0.5564184188842773,-0.1757010817527771
1652389093652435000,5.52843505859375,-2.212864398956299,1.6403369903564453,-0.373399019241333
1652389093662432500,5.5384326171875,-2.3680689334869385,1.626612663269043,-0.3902459144592285
1652389093672430000,5.54843017578125,-2.393087148666382,2.4789137840270996,-0.2100071907043457
1652389093682427600,5.558427734375,-2.898635149002075,2.6835074424743652,0.18441259860992432
1652389093692425200,5.56842529296875,-2.7609105110168457,1.3949041366577148,0.9697115421295166
1652389093702422800,5.5784228515625,-1.8882229328155518,-0.8156623840332031,1.4295519590377808
1652389093712420400,5.58842041015625,-1.334838628768921,-2.617304801940918,1.5579378604888916
1652389093722418000,5.59841796875,-1.3737560510635376,-2.6297683715820312,1.5062249898910522
1652389093732415500,5.60841552734375,-1.2589149475097656,-3.65499210357666,1.5938078165054321
1652389093742413000,5.6184130859375,-1.5766270160675049,-3.715212821960449,1.813456654548645
1652389093752410600,5.62841064453125,-2.2058656215667725,-3.296236038208008,1.8273874521255493
1652389093762408200,5.638408203125,-2.8553647994995117,-2.4885711669921875,1.5889145135879517
1652389093772405800,5.64840576171875,-2.846088409423828,-1.2364368438720703,1.088478446006775
1652389093782436600,5.6584365234375,-2.1484580039978027,-0.20238590240478516,0.5877863168716431
1652389093792467500,5.668467529296875,-1.1414804458618164,0.8781442642211914,-0.19017422199249268
1652389093802498300,5.678498291015625,-0.16652226448059082,1.4425678253173828,-0.7535964250564575
1652389093812529400,5.688529296875,0.9779282808303833,1.967287540435791,-1.2817106246948242
1652389093822560300,5.698560302734375,0.48715853691101074,1.955061435699463,-1.5290429592132568
1652389093832591000,5.708591064453125,-0.10638284683227539,1.7029047012329102,-1.6122221946716309
1652389093842622000,5.7186220703125,-1.0386617183685303,1.3290987014770508,-1.6600183248519897
1652389093852652800,5.72865283203125,-1.4133882522583008,1.020462989807129,-1.6152777671813965
1652389093862717200,5.73871728515625,-1.6128008365631104,0.5442514419555664,-1.4128167629241943
1652389093872781300,5.74878125,-1.729438304901123,0.0983428955078125,-1.1216928958892822
1652389093882845400,5.758845458984375,-1.7166773080825806,0.09894561767578125,-1.1293103694915771
1652389093892909600,5.76890966796875,-1.2005563974380493,-0.23048782348632812,-0.726361870765686
1652389093902974000,5.778973876953125,-0.4890815019607544,0.11898517608642578,-0.5680780410766602
1652389093913038000,5.7890380859375,-0.46119046211242676,0.12351417541503906,-0.567678689956665
1652389093923102200,5.799102294921875,-0.403295636177063,0.2549285888671875,-0.5839108228683472
1652389093933166600,5.80916650390625,0.40217387676239014,1.4997491836547852,-0.687811017036438
1652389093943230700,5.819230712890625,0.4797327518463135,1.7260980606079102,-0.6432116031646729
1652389093953294800,5.829294921875,0.5710932016372681,1.7919692993164062,-0.6111435890197754
1652389093963359200,5.839359130859375,0.7180320024490356,1.8030853271484375,-0.3805670738220215
1652389093973423400,5.84942333984375,0.7711855173110962,1.9143781661987305,-0.18083858489990234
1652389093983487500,5.859487548828125,0.7943730354309082,1.966719627380371,0.07087993621826172
1652389093993551600,5.869551513671875,0.8003063201904297,1.8654217720031738,0.303269624710083
1652389094003616000,5.879615966796875,0.7565946578979492,1.6167488098144531,0.5831489562988281
1652389094013680000,5.88968017578125,0.550360918045044,1.2177324295043945,0.9644014835357666
1652389094023744300,5.899744140625,0.4212501049041748,0.7266445159912109,1.4334893226623535
1652389094033808600,5.90980859375,1.1970912218093872,0.1237936019897461,2.3215107917785645
1652389094043872800,5.919872802734375,1.6062548160552979,-0.077728271484375,2.4144105911254883
1652389094053937200,5.929937255859375,1.9159061908721924,-0.5199403762817383,2.4359941482543945
1652389094064001300,5.940001220703125,2.0065815448760986,-0.8291330337524414,2.2821359634399414
1652389094074065400,5.9500654296875,1.8291079998016357,-0.8869466781616211,2.0577831268310547
1652389094084096300,5.96009619140625,1.6276640892028809,-0.8735818862915039,2.0721559524536133
1652389094094127000,5.970127197265625,1.4782708883285522,-0.7864313125610352,2.2371978759765625
1652389094104158200,5.980158203125,1.186592936515808,-0.7955312728881836,2.346073627471924
1652389094114189000,5.99018896484375,0.6566516160964966,-1.164597511291504,2.305431365966797
1652389094124220000,6.000219970703125,0.6402455568313599,-1.1763925552368164,2.261476755142212
1652389094134250800,6.010250732421875,-0.10177326202392578,-2.2978897094726562,1.9583070278167725
1652389094144281600,6.020281494140625,-0.7980837821960449,-5.265024185180664,1.5235097408294678
1652389094154312400,6.0303125,-0.6966471672058105,-8.899530410766602,1.5062142610549927
1652389094164310000,6.04031005859375,-1.239391565322876,-10.502446174621582,1.0233638286590576
1652389094174307600,6.0503076171875,-2.2084083557128906,-8.61526870727539,-1.282153606414795
1652389094184305200,6.06030517578125,-2.942699909210205,-5.249628067016602,-3.717550754547119
1652389094194302700,6.070302734375,-2.7843003273010254,-2.345343589782715,-4.695587635040283
1652389094204300300,6.08030029296875,-2.270880937576294,0.5203256607055664,-5.0894365310668945
1652389094214297900,6.0902978515625,-1.434850811958313,2.590559482574463,-4.294718265533447
1652389094224295400,6.10029541015625,-0.7668827772140503,3.335005283355713,-3.5145058631896973
1652389094234293000,6.11029296875,-0.17163538932800293,3.6013174057006836,-3.197021484375
1652389094244290600,6.12029052734375,0.1108277440071106,3.319514751434326,-2.8167927265167236
1652389094254288100,6.1302880859375,-0.03994089365005493,3.1978421211242676,-2.06387996673584
1652389094264285700,6.14028564453125,-0.1293138861656189,2.877389907836914,-1.5066829919815063
1652389094274283300,6.150283203125,-0.18615752458572388,2.1669225692749023,-1.2085092067718506
1652389094284280800,6.16028076171875,-0.3756285309791565,1.398280143737793,-1.2460658550262451
1652389094294278400,6.1702783203125,-0.89460289478302,0.2945423126220703,-1.3896803855895996
1652389094304276000,6.18027587890625,-1.7832525968551636,-0.8320226669311523,-2.03623104095459
1652389094314273500,6.1902734375,-1.9273550510406494,-1.813584327697754,-2.2435076236724854
1652389094324271000,6.20027099609375,-1.8616445064544678,-2.303114891052246,-2.8887948989868164
1652389094334268400,6.210268310546875,-1.3144867420196533,-2.5775442123413086,-3.2003250122070312
1652389094344266000,6.220265869140625,-0.9427387118339539,-2.299868583679199,-3.2575302124023438
1652389094354263600,6.230263671875,-0.7728328704833984,-1.7188282012939453,-2.8936054706573486
1652389094364261000,6.24026123046875,-0.39980655908584595,-0.8122777938842773,-2.3621268272399902
1652389094374258700,6.2502587890625,0.2954016923904419,0.5836896896362305,-1.7770981788635254
1652389094384256300,6.26025634765625,0.8459144234657288,1.4076595306396484,-1.3549526929855347
1652389094394253800,6.27025390625,1.3703687191009521,2.001992702484131,-0.8408863544464111
1652389094404251400,6.28025146484375,1.6137268543243408,2.380845546722412,-0.3240523934364319
1652389094414249000,6.2902490234375,1.5533688068389893,2.5464158058166504,-0.035877346992492676
1652389094424246500,6.30024658203125,1.2378343343734741,2.5177855491638184,0.18893098831176758
1652389094434244000,6.310244140625,0.6837013959884644,2.2387032508850098,0.39778196811676025
1652389094444241700,6.32024169921875,0.1001085638999939,1.8007426261901855,0.5733997821807861
1652389094454239200,6.3302392578125,0.1064760684967041,1.80308198928833,0.5928870439529419
1652389094464236800,6.34023681640625,-0.4220241904258728,1.221430778503418,0.7716471552848816
1652389094474234400,6.350234375,-0.7322267293930054,0.44640254974365234,0.8768467307090759
1652389094484232000,6.36023193359375,-0.6863943338394165,-0.320831298828125,0.9531099796295166
1652389094494229500,6.3702294921875,-0.3543244004249573,-0.9225482940673828,1.1843740940093994
1652389094504227000,6.38022705078125,-0.13580107688903809,-1.433323860168457,1.2689895629882812
1652389094514224600,6.390224609375,0.4237595796585083,-1.6309833526611328,1.196757197380066
1652389094524222200,6.40022216796875,1.086158275604248,-1.4873380661010742,1.0873913764953613
1652389094534219800,6.4102197265625,1.340755820274353,-1.0669889450073242,0.9059579968452454
1652389094544217300,6.42021728515625,1.307832956314087,0.25257205963134766,0.615831732749939
1652389094554215000,6.43021484375,1.0012561082839966,0.6973743438720703,0.5215013027191162
1652389094564212500,6.44021240234375,1.0988215208053589,0.8973703384399414,0.7451761364936829
1652389094574210000,6.4502099609375,1.1727181673049927,0.8955898284912109,0.7429077625274658
1652389094584207600,6.46020751953125,1.0186742544174194,1.1446046829223633,0.6456901431083679
1652389094594205200,6.470205078125,0.9699373841285706,1.2781715393066406,0.4383472800254822
1652389094604202800,6.48020263671875,1.160434603691101,1.2461786270141602,0.4892480969429016
1652389094614200300,6.490200439453125,1.574934959411621,1.1635780334472656,0.6402556300163269
1652389094624198000,6.500197998046875,1.10603928565979,1.2124557495117188,0.02847874164581299
1652389094634195500,6.510195556640625,2.2193026542663574,1.148813247680664,0.150864839553833
1652389094644193000,6.520193115234375,1.6868804693222046,1.0832452774047852,-0.23765653371810913
1652389094654190600,6.530190673828125,2.5297293663024902,0.740077018737793,0.41667211055755615
1652389094664188200,6.540188232421875,2.757963180541992,0.5721225738525391,0.287397563457489
1652389094674185500,6.550185546875,2.2915923595428467,0.2990550994873047,0.1446075439453125
1652389094684183000,6.56018310546875,1.7891392707824707,-0.2874288558959961,0.4295700788497925
1652389094694180600,6.5701806640625,2.7239575386047363,-0.5958805084228516,0.5091853141784668
1652389094704178200,6.58017822265625,2.8939573764801025,-1.200857162475586,1.1447829008102417
1652389094714175700,6.59017578125,2.5307772159576416,-1.6492233276367188,1.3382488489151
1652389094724173300,6.60017333984375,2.386524200439453,-1.9004487991333008,1.4540024995803833
1652389094734204400,6.610204345703125,2.3297741413116455,-1.8781204223632812,1.850612759590149
1652389094744235300,6.6202353515625,2.346745252609253,-1.917567253112793,2.3688485622406006
1652389094754266000,6.63026611328125,2.0796959400177,-1.8870306015014648,2.6550803184509277
1652389094764297000,6.640296875,1.530890703201294,-1.4678363800048828,2.7178831100463867
1652389094774327800,6.650327880859375,0.8929016590118408,-0.9211130142211914,2.5923399925231934
1652389094784358700,6.660358642578125,0.2501228451728821,-0.7571401596069336,2.132648468017578
1652389094794389500,6.670389404296875,-0.113289475440979,-0.6024017333984375,1.3838229179382324
1652389094804420400,6.68042041015625,-0.9423257112503052,-0.44890880584716797,0.47498655319213867
1652389094814451500,6.690451416015625,-1.5074456930160522,-0.12701702117919922,-0.5096292495727539
1652389094824482300,6.700482421875,-1.6510485410690308,0.4414634704589844,-1.2352696657180786
1652389094834513200,6.71051318359375,-1.5476861000061035,0.9277200698852539,-1.6009975671768188
1652389094844544000,6.7205439453125,-1.404412031173706,1.5900793075561523,-1.8380699157714844
1652389094854574800,6.730574951171875,-1.651639461517334,1.9572114944458008,-1.7173471450805664
1652389094864605700,6.740605712890625,-2.0803961753845215,1.9605331420898438,-1.3338875770568848
1652389094874636500,6.750636474609375,-2.5604476928710938,1.4887275695800781,-0.7515498995780945
1652389094884667600,6.760667724609375,-2.839749574661255,0.5213737487792969,0.0800926685333252
1652389094894698500,6.770698486328125,-2.6819353103637695,-1.282933235168457,1.1890891790390015
1652389094904729300,6.780729248046875,-2.7454638481140137,-1.2935504913330078,1.1653485298156738
1652389094914760200,6.79076025390625,-2.3146533966064453,-3.018399238586426,1.6764222383499146
1652389094924791000,6.800791015625,-2.269467353820801,-4.445398330688477,2.1690144538879395
1652389094934822000,6.81082177734375,-2.7851953506469727,-3.684361457824707,3.0787906646728516
1652389094944852700,6.820852783203125,-2.834526777267456,-3.694746971130371,3.054196357727051
1652389094954883600,6.830883544921875,-3.0941238403320312,-2.0212526321411133,2.5833277702331543
1652389094964914400,6.84091455078125,-3.01507568359375,-0.4169292449951172,1.8598707914352417
1652389094974945500,6.850945556640625,-0.7441713809967041,1.5713701248168945,0.9069576263427734
1652389094984976400,6.860976318359375,0.1847914457321167,1.758681297302246,0.28592443466186523
1652389094995007200,6.87100732421875,1.086012601852417,1.6848793029785156,-0.20295047760009766
1652389095005071400,6.8810712890625,1.744273066520691,1.6952424049377441,-0.8222510814666748
1652389095015169000,6.8911689453125,1.6007050275802612,1.5440378189086914,-1.2738544940948486
1652389095025266400,6.901266357421875,0.7967574596405029,1.2939586639404297,-1.2986934185028076
1652389095035330600,6.91133056640625,-0.2674800157546997,1.1703500747680664,-1.3220903873443604
1652389095045395000,6.92139501953125,-1.1755154132843018,0.9501581192016602,-1.240466833114624
1652389095055459000,6.931458984375,-1.8495007753372192,0.6864748001098633,-1.0427778959274292
1652389095065523200,6.941523193359375,-1.8781124353408813,0.6758270263671875,-1.0743887424468994
1652389095075587300,6.95158740234375,-2.0549674034118652,0.46175289154052734,-0.8587805032730103
1652389095085651700,6.961651611328125,-1.5534347295761108,0.6181859970092773,-0.44943296909332275
1652389095095749000,6.9717490234375,-0.8570993542671204,0.9759788513183594,-0.4709070920944214
1652389095105846800,6.9818466796875,0.027165651321411133,1.492727279663086,-0.6054825782775879
1652389095115944400,6.9919443359375,0.4800112247467041,1.7820930480957031,-0.7742778062820435
1652389095126041900,7.002041748046875,0.9211121797561646,1.908534049987793,-0.9459100961685181
1652389095136139500,7.012139404296875,1.1426935195922852,1.7674551010131836,-0.8483799695968628
1652389095146237000,7.02223681640625,1.2867037057876587,1.5894660949707031,-0.5823203325271606
1652389095156334600,7.03233447265625,1.284184217453003,1.4271650314331055,-0.25091516971588135
1652389095166432000,7.042431884765625,1.285874605178833,1.433258056640625,-0.2203437089920044
1652389095176529700,7.05252978515625,1.1484631299972534,1.2697029113769531,0.09046602249145508
1652389095186627000,7.062626953125,0.9564205408096313,0.9935340881347656,0.44385457038879395
1652389095196724700,7.072724853515625,0.726557731628418,0.5830564498901367,0.8390096426010132
1652389095206822100,7.082822265625,0.5671550035476685,0.08332538604736328,1.412063717842102
1652389095216919600,7.09291943359375,0.46318912506103516,-0.4103364944458008,1.8975088596343994
1652389095226984000,7.10298388671875,0.3960733413696289,-0.7239217758178711,2.388216495513916
1652389095237048000,7.113048095703125,0.48639535903930664,-0.5663290023803711,2.642266273498535
1652389095247112200,7.1231123046875,0.7211456298828125,-0.25415802001953125,2.702692985534668
1652389095257176600,7.133176513671875,0.9449974298477173,-0.05843162536621094,2.619152069091797
1652389095267240700,7.14324072265625,1.0394941568374634,-0.015142440795898438,2.3886642456054688
1652389095277304800,7.153304931640625,1.1684237718582153,-0.13856792449951172,2.167771816253662
1652389095287369200,7.163369140625,1.1976454257965088,-0.3162565231323242,1.9688386917114258
1652389095297433300,7.173433349609375,0.9958577156066895,-0.4552593231201172,1.730704426765442
1652389095307464200,7.183464111328125,1.03640615940094,-0.5294981002807617,1.4359840154647827
1652389095317461800,7.193461669921875,1.2775580883026123,-0.5571193695068359,1.3244613409042358
1652389095327459300,7.203459228515625,1.2992390394210815,-0.6699037551879883,1.2878446578979492
1652389095337457000,7.213456787109375,0.8192061185836792,-1.767857551574707,1.2045402526855469
1652389095347454500,7.223454345703125,0.05102121829986572,-3.7912940979003906,0.7206437587738037
1652389095357452000,7.2334521484375,-0.25730812549591064,-6.167995452880859,0.38718152046203613
1652389095367449600,7.24344970703125,-0.5679845809936523,-8.152557373046875,0.048110008239746094
1652389095377447200,7.253447265625,-1.433110237121582,-7.49556827545166,-0.9600725173950195
1652389095387444700,7.26344482421875,-2.2464959621429443,-5.422397613525391,-2.3119211196899414
1652389095397408800,7.27340869140625,-2.481389045715332,-2.6479415893554688,-3.4124860763549805
1652389095407373000,7.283373046875,-2.2957348823547363,-0.444366455078125,-3.748434543609619
1652389095417337300,7.29333740234375,-1.5473617315292358,1.5403823852539062,-3.4620914459228516
1652389095427301600,7.303301513671875,-1.1807146072387695,2.427154064178467,-3.121007204055786
1652389095437265700,7.313265625,-0.7518893480300903,2.9449973106384277,-3.008875846862793
1652389095447230000,7.32322998046875,-0.5060141086578369,2.9044222831726074,-3.0344769954681396
1652389095457194200,7.3331943359375,-0.3733466863632202,2.7022523880004883,-3.007178783416748
1652389095467158500,7.343158447265625,-0.37134528160095215,2.443535804748535,-2.867176055908203
1652389095477122800,7.353122802734375,-0.69761723279953,2.025444507598877,-2.790236234664917
1652389095487086800,7.3630869140625,-0.8789019584655762,1.2925395965576172,-2.700225830078125
1652389095497051100,7.373051025390625,-0.8739264011383057,0.34081459045410156,-2.9066267013549805
1652389095507015400,7.383015380859375,-1.0041381120681763,-0.7761020660400391,-3.26151704788208
1652389095516979700,7.392979736328125,-1.3751556873321533,-1.6069021224975586,-3.516265869140625
1652389095526977300,7.402977294921875,-1.6060240268707275,-2.2896881103515625,-3.484482765197754
1652389095536974800,7.412974853515625,-1.3646432161331177,-2.5487194061279297,-3.197208881378174
1652389095546972400,7.422972412109375,-0.7539190053939819,-2.285623550415039,-2.7671055793762207
1652389095556970000,7.432969970703125,-0.09839540719985962,-1.6638479232788086,-2.286691188812256
1652389095566967600,7.442967529296875,0.45608580112457275,-0.7849626541137695,-1.6459321975708008
1652389095576965000,7.452965087890625,1.2118356227874756,0.8532590866088867,-0.29427433013916016
1652389095586962700,7.462962646484375,1.2765583992004395,0.8657493591308594,-0.22628426551818848
1652389095596960300,7.472960205078125,1.781044840812683,1.787827968597412,0.22174501419067383
1652389095606957600,7.48295751953125,2.023500442504883,2.219482421875,0.8186641931533813
1652389095616955100,7.492955078125,1.9983210563659668,2.4507012367248535,1.225091576576233
1652389095626952700,7.50295263671875,1.7586230039596558,2.589413642883301,1.5098414421081543
1652389095636950300,7.5129501953125,1.3548128604888916,2.5735583305358887,1.703512191772461
1652389095646947800,7.52294775390625,1.019453763961792,2.2955565452575684,1.7583438158035278
1652389095656945400,7.5329453125,0.627187967300415,1.9137907028198242,1.7254819869995117
1652389095666943000,7.54294287109375,0.22811761498451233,1.3734865188598633,1.5869081020355225
1652389095676940500,7.5529404296875,-0.5769252777099609,0.2370281219482422,1.139902114868164
1652389095686938000,7.562938232421875,-0.5000014305114746,-0.23076915740966797,0.9721466898918152
1652389095696935700,7.572935791015625,-0.3916794955730438,-0.4152364730834961,0.7758261561393738
1652389095706933200,7.582933349609375,0.34201961755752563,-0.680485725402832,0.9107644557952881
1652389095716930800,7.592930908203125,0.7639658451080322,-0.6441679000854492,0.8152973651885986
1652389095726928400,7.602928466796875,1.3965370655059814,-0.48409271240234375,0.8993479013442993
1652389095736926000,7.612926025390625,1.5320760011672974,-0.07377052307128906,0.8073614239692688
1652389095746923500,7.622923583984375,1.6740665435791016,0.3929100036621094,0.7999745607376099
1652389095756921000,7.632921142578125,1.3686420917510986,0.8707952499389648,0.7444375157356262
1652389095766918700,7.642918701171875,1.4838793277740479,1.1351594924926758,0.8023394346237183
1652389095776916200,7.652916259765625,1.1982513666152954,1.2699556350708008,0.8112408518791199
1652389095786913800,7.662913818359375,0.8671769499778748,1.478877067565918,0.7038490772247314
1652389095796911400,7.672911376953125,0.8706676959991455,1.586918830871582,0.7095254063606262
1652389095806909000,7.682908935546875,0.9384655356407166,1.5819597244262695,0.7770116329193115
1652389095816906500,7.692906494140625,0.732791006565094,1.4664030075073242,0.682588517665863
1652389095826904000,7.702904052734375,1.0322484970092773,1.261688232421875,0.6021679639816284
1652389095836901600,7.712901611328125,0.9594221711158752,1.0133790969848633,0.29901498556137085
1652389095846899200,7.722899169921875,1.7332820892333984,0.623565673828125,0.30971193313598633
1652389095856896800,7.732896728515625,1.921034336090088,0.3199024200439453,-0.25347501039505005
1652389095866894300,7.742894287109375,2.516757011413574,0.02605438232421875,-0.33019596338272095
1652389095876892000,7.752891845703125,2.4446611404418945,-0.2338409423828125,-0.6494096517562866
1652389095886889500,7.762889404296875,2.6109180450439453,-0.6151762008666992,-0.7220011949539185
1652389095896886800,7.77288671875,3.1331679821014404,-0.9934463500976562,-0.48658502101898193
1652389095906884400,7.78288427734375,3.712324857711792,-1.2871217727661133,-0.22492384910583496
1652389095916882000,7.7928818359375,3.3748838901519775,-1.6538763046264648,0.16116714477539062
1652389095926879500,7.80287939453125,3.1552443504333496,-1.849863052368164,0.5892589092254639
1652389095936877000,7.812876953125,2.9620361328125,-1.5610618591308594,1.0442043542861938
1652389095946874600,7.82287451171875,2.5742053985595703,-1.3189582824707031,1.7362422943115234
1652389095956872200,7.8328720703125,2.095435380935669,-1.183711051940918,2.500947952270508
1652389095966869800,7.842869873046875,1.3672689199447632,-1.021474838256836,3.0702295303344727
1652389095976867300,7.852867431640625,0.7053897380828857,-1.0408754348754883,3.3376317024230957
1652389095986865000,7.862864990234375,-0.01951083540916443,-1.1059999465942383,3.0402917861938477
1652389095996862500,7.872862548828125,-1.1140121221542358,-0.9522171020507812,2.2850887775421143
1652389096006860000,7.882860107421875,-2.0724339485168457,-0.7866230010986328,1.4860243797302246
1652389096016857600,7.892857666015625,-2.587296485900879,-0.48511791229248047,0.5946605205535889
1652389096026855200,7.902855224609375,-2.695167303085327,0.05706310272216797,-0.4511617422103882
1652389096036852700,7.912852783203125,-2.384181499481201,0.6100282669067383,-1.1770802736282349
1652389096046850300,7.922850341796875,-1.998138189315796,1.1767559051513672,-1.7707388401031494
1652389096056848000,7.932847900390625,-2.031421661376953,1.3935909271240234,-1.8657581806182861
1652389096066845400,7.942845458984375,-2.434859275817871,1.2885456085205078,-1.6983280181884766
1652389096076843000,7.952843017578125,-2.861499786376953,0.747502326965332,-1.245855689048767
1652389096086840300,7.96284033203125,-3.1977906227111816,-0.12474250793457031,-0.6833927631378174
1652389096096838000,7.972837890625,-2.4289040565490723,-1.9612751007080078,0.34189462661743164
1652389096106835500,7.98283544921875,-2.0548176765441895,-3.409334182739258,0.9479753971099854
1652389096116833000,7.9928330078125,-2.1911654472351074,-4.534741401672363,1.7976726293563843
1652389096126830600,8.00283056640625,-3.2070541381835938,-4.833972930908203,2.616413116455078
1652389096136828200,8.012828125,-3.786928176879883,-3.810275077819824,3.210524797439575
1652389096146825700,8.02282568359375,-3.827136516571045,-2.4934396743774414,2.8215675354003906
1652389096156823300,8.0328232421875,-3.617845058441162,-0.611760139465332,1.7682777643203735
1652389096166820900,8.04282080078125,-3.625702381134033,-0.6192188262939453,1.7250275611877441
1652389096176818400,8.052818359375,-2.692582130432129,0.9555587768554688,0.9843994379043579
1652389096186816000,8.06281591796875,0.35714852809906006,2.8552169799804688,0.22811317443847656
1652389096196813600,8.0728134765625,1.1612895727157593,2.778717041015625,-0.1633005142211914
1652389096206811100,8.08281103515625,1.830659031867981,2.5747323036193848,-0.5652850866317749
1652389096216808700,8.09280859375,1.8299610614776611,2.2477540969848633,-0.9614359140396118
1652389096226806300,8.10280615234375,1.0593211650848389,1.7472620010375977,-1.1609199047088623
1652389096236803800,8.112803955078125,-0.11725890636444092,1.222921371459961,-1.2852519750595093
1652389096246801400,8.122801513671876,-1.0147191286087036,0.7968454360961914,-1.4003641605377197
1652389096256799000,8.132799072265625,-1.7981691360473633,0.22060585021972656,-1.542346477508545
1652389096266796500,8.142796630859374,-1.8463134765625,0.2065753936767578,-1.5728578567504883
1652389096276827400,8.152827392578125,-2.232593536376953,-0.2580146789550781,-1.5542376041412354
1652389096286858200,8.162858154296876,-2.358340263366699,-0.5768299102783203,-1.3290290832519531
1652389096296889000,8.17288916015625,-2.193359613418579,-0.4841604232788086,-1.1262924671173096
1652389096306920000,8.182919921875,-0.6407243609428406,0.6487436294555664,-0.793455958366394
1652389096316950800,8.19295068359375,0.1269245147705078,1.458902359008789,-0.757563591003418
1652389096326982000,8.20298193359375,0.8136804103851318,1.781613826751709,-0.5634472370147705
1652389096337012700,8.2130126953125,0.8198323249816895,1.7869515419006348,-0.5405293703079224
1652389096347043600,8.223043701171875,1.0539896488189697,1.712592601776123,-0.39346373081207275
1652389096357074400,8.233074462890626,1.110211730003357,1.3823204040527344,0.21348106861114502
1652389096367105300,8.243105224609375,1.095824956893921,1.390676498413086,0.5627990961074829
1652389096377136000,8.25313623046875,1.1072704792022705,1.2706890106201172,0.8618041276931763
1652389096387167200,8.263167236328124,1.1261889934539795,1.0119524002075195,1.2027944326400757
1652389096397198000,8.273197998046875,1.1356027126312256,1.017923355102539,1.2291101217269897
1652389096407229000,8.28322900390625,0.720816969871521,0.23186302185058594,2.192551612854004
1652389096417259800,8.293259765625,0.6609989404678345,0.10395622253417969,2.6124510765075684
1652389096427290600,8.30329052734375,0.7910377979278564,0.10211467742919922,2.853914976119995
1652389096437321500,8.313321533203125,0.9583522081375122,0.08733654022216797,2.970777750015259
1652389096447352300,8.323352294921875,1.0485572814941406,-0.04872417449951172,3.0216586589813232
1652389096457383200,8.333383056640624,1.183073878288269,-0.26385498046875,2.938533306121826
1652389096467414300,8.343414306640625,1.209968090057373,-0.6173477172851562,2.7479653358459473
1652389096477445000,8.353445068359376,1.1450358629226685,-0.9839248657226562,2.46560001373291
1652389096487476000,8.36347607421875,1.1676840782165527,-1.218851089477539,2.1742501258850098
1652389096497540000,8.3735400390625,1.1501131057739258,-1.1053037643432617,1.7527226209640503
1652389096507604500,8.3836044921875,1.136461615562439,-1.1161432266235352,1.7109310626983643
1652389096517668600,8.393668701171874,1.1590580940246582,-0.7427206039428711,1.286141276359558
1652389096527732700,8.403732666015625,1.152486801147461,-0.4300069808959961,1.076398491859436
1652389096537797000,8.413797119140625,0.8002105951309204,-0.8500204086303711,0.9134887456893921
1652389096547861200,8.423861328125,-0.14409780502319336,-2.5672607421875,0.5266309976577759
1652389096557925400,8.43392529296875,-0.7432562112808228,-5.617976188659668,0.3316309452056885
1652389096567989800,8.44398974609375,-0.7527453899383545,-8.218960762023926,0.5640934705734253
1652389096578020600,8.4540205078125,-1.5221195220947266,-7.781621932983398,-0.5229165554046631
1652389096588051500,8.464051513671874,-2.4013242721557617,-5.680436134338379,-2.3053178787231445
1652389096598082300,8.474082275390625,-2.6797077655792236,-3.058356285095215,-3.605090856552124
1652389096608113200,8.484113037109376,-1.7161356210708618,2.19752836227417,-3.731083393096924
1652389096618144000,8.49414404296875,-1.235793948173523,3.2628722190856934,-3.1622705459594727
1652389096628175000,8.504175048828126,-0.8131364583969116,3.79610538482666,-2.849748373031616
1652389096638206000,8.5142060546875,-0.6334294080734253,3.6472930908203125,-2.7436094284057617
1652389096648236800,8.52423681640625,-0.5491849184036255,3.2618417739868164,-2.4799046516418457
1652389096658267600,8.534267578125,-0.4142839312553406,2.7760233879089355,-2.196173667907715
1652389096668298500,8.544298583984375,-0.39183127880096436,2.011937141418457,-2.189846992492676
1652389096678329300,8.554329345703126,-0.3722999095916748,1.019674301147461,-2.3896079063415527
1652389096688360200,8.564360107421875,-0.21072149276733398,-0.12635135650634766,-2.697988986968994
1652389096698391000,8.57439111328125,-0.4128457307815552,-1.3207530975341797,-3.0190258026123047
1652389096708422100,8.584422119140624,-1.1331239938735962,-2.428635597229004,-3.368849277496338
1652389096718453000,8.594452880859375,-1.4909968376159668,-2.869173049926758,-3.4208879470825195
1652389096728483800,8.60448388671875,-1.7443182468414307,-2.5927209854125977,-3.6796231269836426
1652389096738514700,8.6145146484375,-1.2272788286209106,-2.022918701171875,-3.5119917392730713
1652389096748545500,8.624545654296876,-0.5726488828659058,-1.5367317199707031,-2.822813034057617
1652389096758576400,8.634576416015625,0.13932275772094727,-0.9353847503662109,-2.051764965057373
1652389096768607200,8.644607177734375,0.21434468030929565,-0.9155359268188477,-1.9620378017425537
1652389096778638300,8.654638427734374,0.9307283163070679,0.08273792266845703,-1.0183095932006836
1652389096788669200,8.664669189453125,1.5795366764068604,1.1014509201049805,-0.24169814586639404
1652389096798666500,8.67466650390625,2.1140754222869873,2.0106263160705566,0.4475146532058716
1652389096808664000,8.6846640625,2.2094380855560303,2.4842019081115723,0.8872702121734619
1652389096818661600,8.69466162109375,1.9688290357589722,2.8886890411376953,1.1777889728546143
1652389096828659200,8.7046591796875,0.9012048840522766,2.7934718132019043,1.4252161979675293
1652389096838656800,8.71465673828125,0.3667604327201843,2.38356876373291,1.4649404287338257
1652389096848654300,8.724654296875,0.09162431955337524,1.9037022590637207,1.3706334829330444
1652389096858652000,8.73465185546875,-0.34437406063079834,1.2989931106567383,1.2843331098556519
1652389096868649500,8.7446494140625,-0.668192982673645,0.6176643371582031,1.0378965139389038
1652389096878647000,8.75464697265625,-0.820186197757721,0.15703868865966797,0.6947743892669678
1652389096888644600,8.76464453125,-0.8179704546928406,-0.30740833282470703,0.4818291664123535
1652389096898642200,8.77464208984375,-0.4579235017299652,-0.6629257202148438,0.38320744037628174
1652389096908639700,8.7846396484375,-0.3928418755531311,-0.6584348678588867,0.3956397771835327
1652389096918637300,8.79463720703125,0.3167289197444916,-0.9531078338623047,0.39073359966278076
1652389096928635000,8.804634765625,1.32081937789917,-0.7625761032104492,0.32624924182891846
1652389096938632400,8.814632568359375,1.4366192817687988,-0.2117023468017578,0.3433929681777954
1652389096948630000,8.824630126953124,1.46469247341156,0.31630706787109375,0.5457301139831543
1652389096958627600,8.834627685546875,1.2803853750228882,0.7019109725952148,0.5649476051330566
1652389096968625200,8.844625244140625,0.8702700138092041,1.1442756652832031,0.5987435579299927
1652389096978622700,8.854622802734376,0.9225518107414246,1.4233322143554688,0.8063826560974121
1652389096988620300,8.864620361328125,0.7807584404945374,1.6803112030029297,0.7470245361328125
1652389096998617900,8.874617919921874,0.6265146136283875,1.7786760330200195,0.6406437158584595
1652389097008615200,8.884615234375,0.7086054086685181,1.5221452713012695,0.5281141996383667
1652389097018612700,8.89461279296875,1.3604201078414917,1.3010473251342773,0.35375499725341797
1652389097028610300,8.9046103515625,1.188575267791748,0.8280515670776367,0.02083444595336914
1652389097038608000,8.91460791015625,1.720036506652832,0.27352142333984375,-0.2835842967033386
1652389097048605400,8.92460546875,1.1877405643463135,-0.3695182800292969,-0.6343390345573425
1652389097058603000,8.93460302734375,2.7361767292022705,-0.813690185546875,-0.3345903158187866
1652389097068600600,8.9446005859375,2.485853433609009,-1.3223257064819336,-0.34925997257232666
1652389097078598100,8.95459814453125,2.0252931118011475,-1.907475471496582,-0.23869502544403076
1652389097088595700,8.964595703125,2.4155309200286865,-2.166536331176758,-0.08911240100860596
1652389097098593300,8.97459326171875,2.4211580753326416,-2.168731689453125,-0.10434114933013916
1652389097108590800,8.9845908203125,3.4772305488586426,-2.1699085235595703,0.456440806388855
1652389097118588400,8.99458837890625,3.032954692840576,-2.0550661087036133,0.746315598487854
1652389097128586000,9.0045859375,3.108309507369995,-1.707071304321289,0.9748908281326294
1652389097138583600,9.01458349609375,2.9522440433502197,-1.0951433181762695,1.0160741806030273
1652389097148581000,9.0245810546875,2.904049873352051,-0.4780750274658203,1.4250742197036743
1652389097158578700,9.03457861328125,2.7413153648376465,-0.15509700775146484,1.844702124595642
1652389097168576300,9.044576171875,2.4282314777374268,0.1106100082397461,2.2265546321868896
1652389097178573800,9.05457373046875,1.7733991146087646,0.2994546890258789,2.5930185317993164
1652389097188571400,9.0645712890625,0.7722716331481934,0.12838172912597656,2.687107563018799
1652389097198569000,9.07456884765625,-0.484924852848053,-0.1351947784423828,2.468404769897461
1652389097208566500,9.08456640625,-2.4461588859558105,0.08968734741210938,1.2681570053100586
1652389097218564000,9.094564208984375,-2.9174582958221436,0.5226621627807617,0.3666952848434448
1652389097228561700,9.104561767578126,-2.766731023788452,0.9993915557861328,-0.23516786098480225
1652389097238559200,9.114559326171875,-2.487795352935791,1.5443344116210938,-0.8400037884712219
1652389097248556800,9.124556884765624,-2.5000596046447754,1.5431804656982422,-1.166635274887085
1652389097258554400,9.134554443359375,-2.6199207305908203,0.889556884765625,-1.234548807144165
1652389097268552000,9.144552001953125,-2.8900325298309326,-0.5104379653930664,-1.1062155961990356
1652389097278549200,9.15454931640625,-3.015397071838379,-1.8503227233886719,-0.6894794702529907
1652389097288546800,9.164546875,-2.3875319957733154,-3.339883804321289,-0.31419920921325684
1652389097298544400,9.17454443359375,-1.886435866355896,-4.5841569900512695,0.0704355239868164
1652389097308542000,9.1845419921875,-2.042886257171631,-5.127251625061035,0.7723677158355713
1652389097318539500,9.19453955078125,-2.701268196105957,-4.49241828918457,1.2523051500320435
1652389097328537000,9.204537109375,-2.7253518104553223,-4.498292922973633,1.2363961935043335
1652389097338568200,9.214568115234375,-3.197237014770508,-3.346449851989746,1.5822057723999023
1652389097348599000,9.22459912109375,-3.2518491744995117,-1.5970182418823242,1.5261982679367065
1652389097358630000,9.2346298828125,-2.7495274543762207,0.19126510620117188,1.2401905059814453
1652389097368660700,9.24466064453125,-1.2972626686096191,1.915287971496582,1.078063726425171
1652389097378691600,9.254691650390624,0.038504719734191895,2.9340133666992188,0.8871378898620605
1652389097388722400,9.264722412109375,0.756523847579956,2.8453269004821777,0.8364293575286865
1652389097398753300,9.274753173828126,0.9327046871185303,2.659999370574951,0.6038490533828735
1652389097408784400,9.284784423828125,0.7075110673904419,2.37465238571167,0.33641088008880615
1652389097418815200,9.294815185546875,0.3033674955368042,1.9847002029418945,0.009312033653259277
1652389097428846000,9.30484619140625,-0.1807624101638794,1.629678726196289,-0.3346623182296753
1652389097438877000,9.314876953125,-0.6469959020614624,1.3157129287719727,-0.7426507472991943
1652389097448907800,9.32490771484375,-1.0880576372146606,0.7624034881591797,-1.1120113134384155
1652389097458938600,9.334938720703125,-1.4683127403259277,0.27966785430908203,-1.3826556205749512
1652389097468969700,9.3449697265625,-1.6627334356307983,-0.06454944610595703,-1.6116418838500977
1652389097479000600,9.35500048828125,-1.5750290155410767,-0.1494150161743164,-1.6913819313049316
1652389097489031400,9.365031494140625,-1.0471928119659424,0.02274322509765625,-1.5217849016189575
1652389097499062300,9.375062255859374,-1.146105170249939,0.4765768051147461,-1.5463486909866333
1652389097509093000,9.385093017578125,-1.115324854850769,0.4857797622680664,-1.525172472000122
1652389097519124000,9.3951240234375,-0.49960434436798096,0.98944091796875,-1.1937508583068848
1652389097529154800,9.40515478515625,0.49285459518432617,1.2127294540405273,-0.411635160446167
1652389097539186000,9.41518603515625,0.710350513458252,1.1895933151245117,0.06976652145385742
1652389097549216800,9.425216796875,0.9850263595581055,1.2868986129760742,0.5837453603744507
1652389097559247600,9.43524755859375,1.0784955024719238,1.2393083572387695,1.079807162284851
1652389097569278500,9.445278564453124,1.1158827543258667,1.0496044158935547,1.5294268131256104
1652389097579309300,9.455309326171875,1.1469318866729736,0.6217164993286133,2.1170082092285156
1652389097589340200,9.465340087890626,1.1967781782150269,0.2416524887084961,2.607161045074463
1652389097599371000,9.47537109375,1.2416776418685913,0.01874828338623047,2.9667444229125977
1652389097609401900,9.48540185546875,1.1837774515151978,0.0077381134033203125,3.1033859252929688
1652389097619432700,9.4954326171875,1.234537959098816,0.0914764404296875,2.9052839279174805
1652389097629463800,9.5054638671875,1.345716118812561,-0.07367897033691406,2.6838550567626953
1652389097639461000,9.515461181640624,1.5472394227981567,-0.29024600982666016,2.438246488571167
1652389097649458700,9.525458740234376,1.5355408191680908,-0.5452251434326172,2.1450881958007812
1652389097659456300,9.535456298828125,1.4279887676239014,-0.7676200866699219,1.9223015308380127
1652389097669453800,9.545453857421874,1.320425033569336,-0.8407306671142578,1.6559160947799683
1652389097679451400,9.555451416015625,1.1361278295516968,-0.8322420120239258,1.5318466424942017
1652389097689449000,9.565448974609374,0.8995163440704346,-0.6810293197631836,1.4213566780090332
1652389097699446500,9.575446533203126,0.8036212921142578,-0.7913188934326172,1.4723020792007446
1652389097709444000,9.585444091796875,0.09997773170471191,-2.1021862030029297,1.3543661832809448
1652389097719441700,9.595441650390624,-0.7773133516311646,-4.814932823181152,1.0748858451843262
1652389097729439200,9.605439208984375,-0.8885157108306885,-7.832551002502441,0.9544385671615601
1652389097739436800,9.615436767578124,-0.985297679901123,-8.837389945983887,0.31621062755584717
1652389097749434400,9.625434326171876,-0.9921244382858276,-8.845418930053711,0.28277313709259033
1652389097759432000,9.635431884765625,-1.9250152111053467,-6.6623029708862305,-1.6808420419692993
1652389097769429500,9.645429443359374,-2.6959657669067383,-3.8067455291748047,-3.253260612487793
1652389097779427000,9.655427001953125,-2.698524236679077,-1.1283349990844727,-3.8859424591064453
1652389097789424600,9.665424560546874,-2.01503586769104,1.3170623779296875,-3.7561888694763184
1652389097799422200,9.675422119140626,-1.6651384830474854,2.6416492462158203,-3.2935428619384766
1652389097809419800,9.685419677734375,-1.4049773216247559,3.468524932861328,-3.1468372344970703
1652389097819417300,9.695417236328124,-1.0547407865524292,3.3568406105041504,-3.186206340789795
1652389097829415000,9.705414794921875,-0.6822637319564819,3.108376979827881,-3.0455758571624756
1652389097839412500,9.71541259765625,-0.5020822286605835,2.57664155960083,-2.7509171962738037
1652389097849410000,9.72541015625,-0.47126302123069763,1.9094352722167969,-2.776304006576538
1652389097859407400,9.735407470703125,-0.512733519077301,1.0475358963012695,-3.1270344257354736
1652389097869405000,9.745405029296874,-0.7321746349334717,-0.10995006561279297,-3.4543230533599854
1652389097879402500,9.755402587890625,-1.1425107717514038,-1.6812810897827148,-3.3602304458618164
1652389097889400000,9.765400146484374,-1.6992859840393066,-2.822784423828125,-3.5293593406677246
1652389097899397600,9.775397705078126,-1.8355247974395752,-3.370978355407715,-3.594782829284668
1652389097909395200,9.785395263671875,-1.5000317096710205,-3.1505165100097656,-3.392322540283203
1652389097919392800,9.795392822265624,-0.8561904430389404,-2.4347753524780273,-2.967334032058716
1652389097929390300,9.805390380859375,-0.16369885206222534,-1.5247373580932617,-2.334423303604126
1652389097939388000,9.815387939453124,0.5688726902008057,-0.5228796005249023,-1.6558493375778198
1652389097949385500,9.825385498046876,1.2418690919876099,0.6894350051879883,-0.9002014398574829
1652389097959383000,9.835383056640625,1.6857702732086182,1.5231447219848633,-0.28947925567626953
1652389097969380600,9.845380615234374,1.947641372680664,2.122298240661621,0.21622657775878906
1652389097979378200,9.855378173828125,1.9012717008590698,2.3982973098754883,0.8746370077133179
1652389097989375700,9.865375732421874,1.5755785703659058,2.433091163635254,1.3368587493896484
1652389097999406600,9.875406494140625,1.1006430387496948,2.3751306533813477,1.7061049938201904
1652389098009437700,9.885437744140624,0.5587246417999268,2.150636672973633,1.8928568363189697
1652389098019468500,9.895468505859375,0.10192558169364929,1.6259117126464844,2.0237531661987305
1652389098029499400,9.90549951171875,-0.19419462978839874,1.11962890625,2.006899118423462
1652389098039530200,9.9155302734375,-0.6329258680343628,0.5744438171386719,1.8086371421813965
1652389098049561000,9.92556103515625,-0.8056391477584839,0.1128225326538086,1.444077968597412
1652389098059592000,9.935592041015624,-0.6116446256637573,-0.28170108795166016,1.1087572574615479
1652389098069622800,9.945622802734375,-0.11232970654964447,-0.6950931549072266,0.9696808457374573
1652389098079653600,9.955653564453126,0.37525367736816406,-0.9552364349365234,0.8123365640640259
1652389098089684700,9.965684814453125,1.1045581102371216,-0.9476709365844727,0.7210696935653687
1652389098099715600,9.975715576171876,1.4519838094711304,-0.6323833465576172,0.48370838165283203
1652389098109746400,9.985746337890625,1.7969542741775513,-0.18184757232666016,0.4286125898361206
1652389098119777300,9.99577734375,1.6880377531051636,0.33489513397216797,0.3941212296485901
1652389098129808100,10.00580810546875,1.532771110534668,0.6909418106079102,0.5153628587722778
1652389098139839000,10.0158388671875,1.4379653930664062,1.1427574157714844,0.5905815362930298
1652389098149869800,10.025869873046876,1.356483817100525,1.450906753540039,0.7123913764953613
1652389098159901000,10.03590087890625,1.4232947826385498,1.8021821975708008,0.6683905124664307
1652389098169931800,10.045931884765626,1.522144079208374,1.945152759552002,0.9161679744720459
1652389098179962600,10.055962646484375,1.7181346416473389,2.0785412788391113,1.004485011100769
1652389098189960200,10.065960205078126,1.7989742755889893,2.0824737548828125,1.028212547302246
1652389098199957800,10.075957763671875,1.557397484779358,1.8731513023376465,0.9797556400299072
1652389098209955300,10.085955322265624,2.052507162094116,1.4936017990112305,0.8664181232452393
1652389098219953000,10.095952880859375,2.2466602325439453,0.7740259170532227,0.7612079381942749
1652389098229950500,10.105950439453125,2.441650390625,0.2797060012817383,0.8822553157806396
1652389098239948000,10.115947998046876,2.397566318511963,-0.15704822540283203,0.6318997144699097
1652389098249945600,10.125945556640625,1.8786455392837524,-0.7757234573364258,0.4590013027191162
1652389098259943200,10.135943115234374,1.7775886058807373,-1.3797845840454102,0.5930960178375244
1652389098269940700,10.145940673828125,2.7548093795776367,-1.8064184188842773,1.1105073690414429
1652389098279938300,10.155938232421875,2.3783912658691406,-2.1703977584838867,1.2758334875106812
1652389098289936000,10.165935791015626,2.6484012603759766,-2.2751283645629883,1.4097461700439453
1652389098299900200,10.175900146484375,2.568066120147705,-2.0679311752319336,1.4876583814620972
1652389098309864200,10.1858642578125,2.5431342124938965,-2.068404197692871,1.4735480546951294
1652389098319828500,10.195828369140624,2.349325180053711,-1.2228116989135742,2.259918212890625
1652389098329792800,10.205792724609376,1.9080241918563843,-0.8885059356689453,2.541844367980957
1652389098339757000,10.215757080078125,1.8334921598434448,-0.8860044479370117,2.536586284637451
1652389098349721000,10.22572119140625,1.3144479990005493,-0.6506490707397461,2.6755709648132324
1652389098359685400,10.235685302734375,0.5958172082901001,-0.7884044647216797,2.4116172790527344
1652389098369649700,10.245649658203124,-0.14838027954101562,-0.9264650344848633,1.8564938306808472
1652389098379614000,10.255614013671876,-1.163914680480957,-0.8474674224853516,1.1149444580078125
1652389098389578200,10.265578125,-1.9310646057128906,0.3549356460571289,-0.7336087226867676
1652389098399542300,10.275542236328125,-1.7172081470489502,0.9638500213623047,-1.1749305725097656
1652389098409506600,10.285506591796874,-1.4187283515930176,1.6263360977172852,-1.3776109218597412
1652389098419470800,10.295470947265626,-1.3854621648788452,2.029069423675537,-1.48636794090271
1652389098429435100,10.30543505859375,-1.711561918258667,2.141793727874756,-1.425776720046997
1652389098439399200,10.315399169921875,-2.1758718490600586,1.8843374252319336,-1.242632269859314
1652389098449363500,10.325363525390625,-2.452874183654785,0.8084735870361328,-0.5821647047996521
1652389098459327700,10.33532763671875,-2.2451956272125244,-0.9889688491821289,0.19338560104370117
1652389098469292000,10.3452919921875,-1.9649255275726318,-3.0695810317993164,0.5383187532424927
1652389098479256300,10.35525634765625,-2.299177646636963,-4.325410842895508,0.9770283699035645
1652389098489254000,10.36525390625,-2.878530502319336,-5.16612434387207,1.7034496068954468
1652389098499251200,10.375251220703126,-3.457858085632324,-4.720648765563965,2.1065516471862793
1652389098509248800,10.385248779296875,-3.803830146789551,-3.224307060241699,2.0180623531341553
1652389098519246300,10.395246337890624,-3.836717128753662,-1.4117908477783203,1.3330974578857422
1652389098529244000,10.405243896484375,-3.048224925994873,-0.17662811279296875,0.8596581220626831
1652389098539241500,10.415241455078124,-1.346605896949768,0.9148187637329102,0.5016951560974121
1652389098549239000,10.425239013671876,0.40512263774871826,1.8302698135375977,0.15804743766784668
1652389098559236600,10.435236572265625,1.067915678024292,2.042349338531494,-0.20946621894836426
1652389098569234200,10.445234130859374,1.6284205913543701,2.261186122894287,-0.6097221374511719
1652389098579231700,10.455231689453125,1.6705089807510376,2.2931337356567383,-0.9987568855285645
1652389098589229300,10.465229248046874,0.8883532285690308,1.939466953277588,-1.276534914970398
1652389098599227000,10.475226806640626,0.07643461227416992,1.5313024520874023,-1.4231581687927246
1652389098609224400,10.485224365234375,-0.7062573432922363,1.159231185913086,-1.547338604927063
1652389098619222000,10.495221923828124,-1.2715058326721191,0.8640422821044922,-1.529144048690796
1652389098629219600,10.505219482421875,-1.6214791536331177,0.46380138397216797,-1.38252854347229
1652389098639217200,10.515217041015624,-1.7672178745269775,0.1590099334716797,-1.228001356124878
1652389098649214700,10.525214599609376,-1.5835901498794556,-0.02336883544921875,-0.998725950717926
1652389098659212300,10.53521240234375,-1.2749887704849243,0.2104940414428711,-0.8373024463653564
1652389098669209900,10.5452099609375,-0.6418584585189819,0.6760063171386719,-0.713005781173706
1652389098679207400,10.55520751953125,0.11927223205566406,1.321859359741211,-0.6649852991104126
1652389098689205000,10.565205078125,0.1956862211227417,1.6634883880615234,-0.7415167093276978
1652389098699202300,10.575202392578126,0.7091002464294434,1.9762001037597656,-0.6019644737243652
1652389098709200000,10.585199951171875,0.6356027126312256,1.8152012825012207,-0.49939489364624023
1652389098719197400,10.595197509765624,0.7598236799240112,1.7583503723144531,-0.23780405521392822
1652389098729195000,10.605195068359375,0.8045481443405151,1.7892217636108398,0.030102849006652832
1652389098739192600,10.615192626953124,0.8225290775299072,1.799957275390625,0.07484889030456543
1652389098749190100,10.625190185546876,0.8060487508773804,1.7372369766235352,0.37433314323425293
1652389098759187700,10.635187744140625,0.7929832935333252,1.504220962524414,0.6873263120651245
1652389098769185300,10.645185302734374,0.7296509742736816,0.515294075012207,1.4073227643966675
1652389098779182800,10.655182861328125,0.7482675313949585,0.05857372283935547,1.7862931489944458
1652389098789180400,10.665180419921874,0.9434735774993896,-0.11863899230957031,2.1488747596740723
1652389098799178000,10.675177978515626,1.357708215713501,0.002597808837890625,2.192343235015869
1652389098809175600,10.685175537109375,1.624115228652954,-0.02437591552734375,2.0632944107055664
1652389098819173000,10.695173095703124,1.8021870851516724,-0.3330812454223633,1.9866083860397339
1652389098829170700,10.705170654296875,1.7271848917007446,-0.5566596984863281,1.9791960716247559
1652389098839168300,10.715168212890624,1.475337266921997,-0.6249790191650391,1.9591681957244873
1652389098849165800,10.725165771484376,1.279415488243103,-0.4840536117553711,1.839680790901184
1652389098859163400,10.735163330078125,1.1608456373214722,-0.3166542053222656,1.7430567741394043
1652389098869161000,10.745160888671874,1.022798776626587,-0.14295578002929688,1.7160625457763672
1652389098879158500,10.755158447265625,0.9686837196350098,-0.00024318695068359375,1.7629350423812866
1652389098889156000,10.765156005859374,0.874834418296814,-0.1704092025756836,1.8060401678085327
1652389098899153700,10.775153564453126,0.15529048442840576,-1.3594865798950195,1.5727096796035767
1652389098909151200,10.785151123046875,-0.5885097980499268,-3.959299087524414,1.1333298683166504
1652389098919148800,10.795148681640624,-0.48442935943603516,-7.704672813415527,1.1013644933700562
1652389098929146000,10.80514599609375,-0.8277713656425476,-9.441896438598633,0.6860044002532959
1652389098939143700,10.815143798828124,-2.017183303833008,-8.157391548156738,-1.5654959678649902
1652389098949141500,10.8251416015625,-3.1686015129089355,-5.790270805358887,-3.4076082706451416
1652389098959139000,10.83513916015625,-3.4089064598083496,-2.884150505065918,-4.314957618713379
1652389098969136600,10.84513671875,-3.345398187637329,-2.8817672729492188,-4.352939605712891
1652389098979134200,10.85513427734375,-2.840639114379883,0.16350173950195312,-4.557397842407227
1652389098989131800,10.8651318359375,-1.5014334917068481,3.1342592239379883,-3.5198662281036377
1652389098999129300,10.87512939453125,-0.8536850214004517,3.606595516204834,-3.248677968978882
1652389099009127000,10.885126953125,-0.5514515042304993,3.576216220855713,-2.955216407775879
1652389099019124200,10.895124267578124,-0.44970542192459106,3.5909972190856934,-2.9400546550750732
1652389099029121800,10.905121826171875,-0.1432185173034668,2.9441094398498535,-2.5458810329437256
1652389099039119400,10.915119384765624,-0.09417521953582764,2.184119701385498,-2.232215642929077
1652389099049117000,10.925116943359376,-0.09876847267150879,1.195648193359375,-2.136800765991211
1652389099059114500,10.935114501953125,-0.15364128351211548,0.24633407592773438,-2.443006992340088
1652389099069112000,10.945112060546874,-0.535019040107727,-0.9347572326660156,-2.494436740875244
1652389099079109600,10.955109619140625,-1.272782325744629,-2.166259765625,-2.728764772415161
1652389099089107200,10.965107177734374,-1.5769069194793701,-2.800257682800293,-3.0344510078430176
1652389099099104800,10.975104736328126,-1.4058098793029785,-2.9332971572875977,-3.2397518157958984
1652389099109102300,10.985102294921875,-0.9462279081344604,-2.564883232116699,-3.2063584327697754
1652389099119100000,10.995099853515624,-0.8975734710693359,-2.546245574951172,-3.1195249557495117
1652389099129097500,11.005097412109375,-0.26165077090263367,-1.9001283645629883,-2.5089221000671387
1652389099139095000,11.015094970703124,1.001757025718689,0.21907424926757812,-1.1192071437835693
1652389099149092600,11.025092529296876,1.641435980796814,1.3153791427612305,-0.48528212308883667
1652389099159090200,11.035090087890625,1.6915228366851807,1.3265304565429688,-0.4240192770957947
1652389099169087700,11.045087646484374,2.1627135276794434,2.5247178077697754,0.730012059211731
1652389099179085300,11.055085205078125,1.851412057876587,2.7389450073242188,1.1924371719360352
1652389099189083000,11.065082763671874,1.3897768259048462,2.7549376487731934,1.4656322002410889
1652389099199080400,11.07508056640625,0.7662215232849121,2.460367202758789,1.6033045053482056
1652389099209078000,11.085078125,0.3043372631072998,2.0117368698120117,1.6424925327301025
1652389099219075600,11.09507568359375,-0.12419921159744263,1.4214468002319336,1.594962239265442
1652389099229073200,11.1050732421875,-0.4333936274051666,0.8766107559204102,1.5273574590682983
1652389099239070700,11.11507080078125,-0.6485071182250977,0.32950305938720703,1.2637431621551514
1652389099249068000,11.125068115234376,-0.3652958869934082,-0.27230358123779297,0.9928439855575562
1652389099259065600,11.135065673828125,-0.04225456714630127,-0.6509122848510742,0.7617629766464233
1652389099269063200,11.145063232421874,0.4077397584915161,-0.8781013488769531,0.7299240827560425
1652389099279094000,11.155093994140625,0.9959129095077515,-0.8464393615722656,0.7122900485992432
1652389099289124900,11.165124755859376,1.2763371467590332,-0.5230045318603516,0.5981993675231934
1652389099299156000,11.175156005859375,1.4696153402328491,-0.11170578002929688,0.5753011703491211
1652389099309186800,11.185186767578125,1.3815926313400269,0.25791168212890625,0.6112592220306396
1652389099319217700,11.1952177734375,1.1290147304534912,0.7512092590332031,0.659252405166626
1652389099329248500,11.20524853515625,0.8811415433883667,1.042740821838379,0.7870131731033325
1652389099339279400,11.215279296875,0.7243216037750244,1.2739143371582031,0.7898373603820801
1652389099349310200,11.225310302734375,0.6057249903678894,1.4543123245239258,0.7347629070281982
1652389099359341000,11.235341064453126,0.8307197093963623,1.485753059387207,0.9689793586730957
1652389099369372200,11.2453720703125,0.8124659061431885,1.4926338195800781,0.9499210119247437
1652389099379403000,11.255403076171875,0.9809502363204956,1.268890380859375,0.9198817014694214
1652389099389433900,11.265433837890624,1.0386590957641602,1.2647571563720703,0.9068176746368408
1652389099399464700,11.275464599609375,1.2181172370910645,0.5802326202392578,0.355613112449646
1652389099409495600,11.28549560546875,1.3356314897537231,0.2928628921508789,-0.1727365255355835
1652389099419526400,11.2955263671875,2.04791522026062,-0.0734090805053711,-0.30040109157562256
1652389099429557200,11.30555712890625,2.0285329818725586,-0.4464120864868164,-0.407406210899353
1652389099439588400,11.31558837890625,2.1198673248291016,-0.8978424072265625,-0.3517656922340393
1652389099449619200,11.325619140625,2.1649274826049805,-1.1449365615844727,-0.4702882766723633
1652389099459650000,11.335650146484374,2.17814302444458,-1.1469030380249023,-0.47869813442230225
1652389099469681000,11.345680908203125,2.3673148155212402,-1.4229860305786133,-0.11300909519195557
1652389099479745000,11.3557451171875,2.5946483612060547,-1.6839714050292969,0.7203644514083862
1652389099489809400,11.365809326171876,2.8367409706115723,-1.6283750534057617,0.8324642181396484
1652389099499906800,11.37590673828125,2.578293800354004,-1.5119256973266602,1.1935980319976807
1652389099510004500,11.38600439453125,2.291574239730835,-1.0883550643920898,1.4184800386428833
1652389099520102000,11.396101806640624,2.1318359375,-0.8094892501831055,1.6700798273086548
1652389099530199600,11.406199462890624,1.8712596893310547,-0.7190608978271484,1.928968071937561
1652389099540297000,11.416296875,0.8743231296539307,-0.6928300857543945,2.4574289321899414
1652389099550394600,11.42639453125,0.2479272186756134,-0.805201530456543,2.179759979248047
1652389099560492000,11.436491943359375,-0.6768762469291687,-0.8149261474609375,1.5984750986099243
1652389099570589700,11.446589599609375,-1.6561802625656128,-0.6816539764404297,0.8463841676712036
1652389099580653800,11.45665380859375,-2.0240564346313477,-0.38207244873046875,0.041034817695617676
1652389099590718000,11.466718017578126,-1.938109278678894,0.006256103515625,-0.6609127521514893
1652389099600782300,11.4767822265625,-1.5817548036575317,0.4849071502685547,-1.0253362655639648
1652389099610846500,11.486846435546875,-1.3208775520324707,1.0007266998291016,-1.1607192754745483
1652389099620910600,11.49691064453125,-1.4310367107391357,1.2463512420654297,-1.1487988233566284
1652389099630975000,11.50697509765625,-1.913963794708252,1.3342475891113281,-1.0202922821044922
1652389099641039000,11.5170390625,-2.3143553733825684,1.1761178970336914,-0.7082124948501587
1652389099651103200,11.527103271484375,-2.4955532550811768,0.6901063919067383,-0.10934174060821533
1652389099661167600,11.537167724609375,-2.5179028511047363,0.059494972229003906,0.44167280197143555
1652389099671231700,11.547231689453126,-2.5781164169311523,0.048933982849121094,0.4114189147949219
1652389099681296000,11.5572958984375,-2.2283382415771484,-1.795578956604004,1.3317784070968628
1652389099691360000,11.567360107421875,-2.2949042320251465,-2.4912357330322266,1.8003594875335693
1652389099701424400,11.57742431640625,-2.4739513397216797,-2.4748001098632812,2.0064167976379395
1652389099711489000,11.587489013671876,-2.6242947578430176,-2.077728271484375,1.9849328994750977
1652389099721586400,11.59758642578125,-2.5503623485565186,-1.0250043869018555,1.5359221696853638
1652389100050520300,11.926520263671875,-1.7492129802703857,-1.0550346374511719,0.9951596260070801
1652389100060517000,11.93651708984375,1.9837162494659424,-0.3012256622314453,1.5028862953186035
1652389100070514700,11.9465146484375,2.0837907791137695,-0.15108585357666016,1.3406071662902832
1652389100080512500,11.956512451171875,1.5830578804016113,-0.9938230514526367,1.2795684337615967
1652389100090509800,11.966509765625,0.6383394002914429,-2.6684932708740234,1.0641777515411377
1652389100100507400,11.97650732421875,0.24373435974121094,-6.320269584655762,0.9022457599639893
1652389100110505000,11.9865048828125,0.4436267614364624,-10.731793403625488,1.3432819843292236
1652389100120502500,11.99650244140625,-0.6413847208023071,-11.176597595214844,-0.33548402786254883
1652389100130500000,12.0065,-1.7186322212219238,-8.639945983886719,-2.7352983951568604
1652389100140497700,12.01649755859375,-1.893005609512329,-4.401400566101074,-4.043299198150635
1652389100150495200,12.0264951171875,-1.7764633893966675,-0.28615665435791016,-5.410486698150635
1652389100160492500,12.036492431640625,-0.7455545663833618,2.6116366386413574,-4.731776237487793
1652389100170490400,12.046490478515626,-0.17177923023700714,3.7852516174316406,-3.8619189262390137
1652389100180487700,12.05648779296875,-0.0540461391210556,3.786142349243164,-3.875901222229004
1652389100190485200,12.0664853515625,0.6436591148376465,3.817228317260742,-2.709437847137451
1652389100200482800,12.07648291015625,0.5869418978691101,3.2130565643310547,-2.42773175239563
1652389100210480400,12.08648046875,0.5146235227584839,2.6626992225646973,-2.064828634262085
1652389100220478000,12.09647802734375,0.4845421314239502,1.9983038902282715,-1.6479010581970215
1652389100230475500,12.1064755859375,0.6548027992248535,1.1814651489257812,-1.5121170282363892
1652389100240473000,12.11647314453125,0.8007516264915466,0.2886495590209961,-1.6951208114624023
1652389100250470700,12.126470703125,0.6146585941314697,-0.5723352432250977,-1.9739035367965698
1652389100260468200,12.13646826171875,0.09839673340320587,-1.5594205856323242,-2.2825074195861816
1652389100270465800,12.1464658203125,-0.7881627678871155,-2.107585906982422,-3.4053544998168945
1652389100280463400,12.15646337890625,-0.8721233010292053,-2.223456382751465,-4.014996528625488
1652389100290461000,12.1664609375,-0.5538340210914612,-2.1080894470214844,-4.293123722076416
1652389100300458500,12.17645849609375,-0.09114888310432434,-1.9161319732666016,-3.9255950450897217
1652389100310456000,12.1864560546875,0.45642799139022827,-1.4099187850952148,-2.9185352325439453
1652389100320453600,12.19645361328125,1.1098185777664185,-0.42424583435058594,-2.1569199562072754
1652389100330451200,12.206451171875,1.7861905097961426,0.6852426528930664,-1.4531259536743164
1652389100340448800,12.21644873046875,2.441988468170166,1.7489118576049805,-0.7277225255966187
1652389100350446300,12.2264462890625,2.8825340270996094,2.1810097694396973,0.0320584774017334
1652389100360444000,12.23644384765625,2.876382827758789,2.377260208129883,0.5848019123077393
1652389100370441500,12.24644140625,2.4691357612609863,2.5555171966552734,0.9144028425216675
1652389100380439000,12.25643896484375,1.8276970386505127,2.5097289085388184,1.00154447555542
1652389100390436600,12.2664365234375,1.3355756998062134,2.3023104667663574,1.0646820068359375
1652389100400434000,12.276433837890625,0.9344121217727661,1.9527497291564941,1.1171900033950806
1652389100410431500,12.286431396484375,0.9128508567810059,1.9544901847839355,1.1254042387008667
1652389100420429000,12.296428955078126,0.5332337617874146,1.5273609161376953,1.0520024299621582
1652389100430426600,12.306426513671875,0.067405104637146,0.4560670852661133,0.7286170721054077
1652389100440457700,12.316457763671876,0.07582986354827881,0.4575176239013672,0.7414063215255737
1652389100450488600,12.326488525390625,0.43414604663848877,-0.8817558288574219,0.5141669511795044
1652389100460519400,12.33651953125,0.8546913862228394,-1.337763786315918,0.43153631687164307
1652389100470550300,12.34655029296875,1.219461441040039,-1.4545345306396484,0.37105798721313477
1652389100480581000,12.3565810546875,1.3693280220031738,-1.1990509033203125,0.26255035400390625
1652389100490612000,12.366612060546874,1.5412001609802246,-0.7367715835571289,0.21166658401489258
1652389100500642800,12.376642822265625,1.6195366382598877,-0.7403697967529297,0.22009968757629395
1652389100510674000,12.386673828125,1.4849786758422852,0.3490171432495117,0.2824896574020386
1652389100520704800,12.396704833984375,1.5572744607925415,0.34372425079345703,0.2832714319229126
1652389100530735600,12.406735595703125,1.4825754165649414,0.6945981979370117,0.26215219497680664
1652389100540766500,12.416766357421874,1.565589189529419,1.009007453918457,0.2625499963760376
1652389100550797300,12.42679736328125,1.8626995086669922,1.2870864868164062,0.3989821672439575
1652389100560828200,12.436828125,1.9778079986572266,1.5960216522216797,0.5132923126220703
1652389100570859000,12.44685888671875,2.031954526901245,1.7614002227783203,0.5570321083068848
1652389100580889900,12.456889892578126,2.196967601776123,1.5943145751953125,0.7246425151824951
1652389100590921000,12.4669208984375,1.616896390914917,1.3775606155395508,0.21192967891693115
1652389102181233200,14.057233154296876,-2.0729572772979736,-0.034073829650878906,-0.6965680122375488
1652389102191221200,14.06722119140625,-1.4708616733551025,0.09048938751220703,-0.5787534713745117
1652389102201714200,14.077714111328126,-0.6069795489311218,0.7208700180053711,-0.6052370071411133
1652389102212042000,14.0880419921875,0.07938098907470703,1.2256813049316406,-0.5539389848709106
1652389102222537200,14.098537109375,0.7716411352157593,1.7847261428833008,-0.4339745044708252
1652389102232932600,14.1089326171875,1.0537183284759521,2.036254405975342,-0.2551778554916382
1652389102243262000,14.119261962890626,1.0568255186080933,2.04091215133667,-0.23221135139465332
1652389102253543700,14.129543701171874,1.2763453722000122,2.106433868408203,-0.09681487083435059
1652389102263915000,14.1399150390625,1.2400604486465454,1.9145574569702148,0.17541372776031494
1652389102274244900,14.150244873046875,1.1193103790283203,1.8765935897827148,0.43230390548706055
1652389102284641500,14.1606416015625,1.00257408618927,1.776463508605957,0.689321756362915
1652389102295001900,14.171001953125,0.8866465091705322,1.5342016220092773,0.973996639251709
1652389102305331700,14.181331787109375,0.8449476957321167,1.1464624404907227,1.2159035205841064
1652389102315636200,14.19163623046875,0.9519975185394287,0.6603422164916992,1.5335725545883179
1652389102325918700,14.201918701171875,0.8016259670257568,0.05860424041748047,1.942379117012024
1652389102336182300,14.212182373046875,0.7391530275344849,-0.43860816955566406,2.448317050933838
1652389102346429200,14.22242919921875,0.9539412260055542,-0.8026962280273438,2.77571177482605
1652389102356661200,14.2326611328125,1.673008680343628,-0.7003583908081055,2.5797629356384277
1652389102366880500,14.242880615234375,1.6450575590133667,-0.6766166687011719,2.517118453979492
1652389102377088000,14.253087890625,1.2843371629714966,-0.6377677917480469,2.5019845962524414
1652389102387285000,14.263284912109375,1.0367225408554077,-0.4830160140991211,2.2989249229431152
1652389102397472500,14.273472412109374,0.984614372253418,-0.30263328552246094,1.9638673067092896
1652389102407697000,14.28369677734375,0.8856651782989502,-0.05180644989013672,1.5375454425811768
1652389102417911600,14.29391162109375,0.7707099914550781,0.029097557067871094,1.303006649017334
1652389102428117000,14.304116943359375,0.44809842109680176,-0.630681037902832,1.1910827159881592
1652389102438314000,14.31431396484375,-0.3123701810836792,-2.118870735168457,0.9972406625747681
1652389102448503600,14.324503662109375,-0.7956289052963257,-4.97698974609375,0.7773745059967041
1652389102458686000,14.33468603515625,-0.8367071747779846,-8.297402381896973,0.8356382846832275
1652389102468861700,14.34486181640625,-1.5682282447814941,-9.620591163635254,0.08433043956756592
1652389102479031300,14.35503125,-2.6104230880737305,-8.475675582885742,-2.005953311920166
1652389102489195000,14.365195068359375,-3.088890552520752,-5.2198486328125,-4.182615280151367
1652389102499359200,14.375359130859374,-2.778434991836548,-1.4727964401245117,-5.286208152770996
1652389102509490000,14.385489990234374,-2.6986074447631836,-1.4667844772338867,-5.3140788078308105
1652389102519620900,14.395620849609376,-1.4280749559402466,3.2542309761047363,-4.044111251831055
1652389102529718500,14.405718505859374,-0.5997703075408936,3.7957229614257812,-3.569939136505127
1652389102539816000,14.41581591796875,0.07144176959991455,3.732229232788086,-3.3110241889953613
1652389102549913600,14.42591357421875,0.07677203416824341,3.486922264099121,-3.1165218353271484
1652389102560011000,14.436010986328125,-0.10061335563659668,3.55255126953125,-2.8200297355651855
1652389102570075100,14.4460751953125,-0.18942469358444214,3.277843475341797,-2.2810659408569336
1652389102580139500,14.456139404296875,-0.20698833465576172,2.6437463760375977,-1.9141032695770264
1652389102590170400,14.46617041015625,-0.17953360080718994,1.6422381401062012,-1.824413776397705
1652389102600201200,14.476201171875,-0.4338023066520691,0.46158409118652344,-2.138289451599121
1652389102610232000,14.486232177734376,-0.7450345158576965,-0.6212244033813477,-2.3424222469329834
1652389102620263000,14.496262939453125,-1.2931313514709473,-1.9656410217285156,-2.5462090969085693
1652389102630293800,14.506293701171876,-1.444385051727295,-2.9314002990722656,-2.519702911376953
1652389102640324600,14.51632470703125,-1.2651100158691406,-3.414830207824707,-2.667253017425537
1652389102650355500,14.52635546875,-0.6360952258110046,-3.153489112854004,-2.381497859954834
1652389102660386600,14.536386474609374,-0.5885447859764099,-3.1375818252563477,-2.3024513721466064
1652389102670417400,14.54641748046875,-0.20875638723373413,-2.025784492492676,-1.8501958847045898
1652389102680448300,14.5564482421875,0.49645793437957764,0.6572713851928711,-0.7509462833404541
