time,seconds_elapsed,z,y,x
1652389138529590000,0.051590087890625,0.027367591857910156,0.10897207260131836,0.0024799108505249023
1652389138539587000,0.061587158203125,0.022546768188476562,0.11611700057983398,-0.014462411403656006
1652389138549584100,0.071584228515625,0.01639842987060547,0.1246500015258789,-0.04193520545959473
1652389138559581700,0.081581787109375,0.009097099304199219,0.13448667526245117,-0.07947659492492676
1652389138569579000,0.0915791015625,0.010064125061035156,0.12748479843139648,-0.12849906086921692
1652389138579576300,0.101576416015625,0.013559341430664062,0.11666154861450195,-0.17167928814888
1652389138589574000,0.111573974609375,0.0156402587890625,0.10777616500854492,-0.2305770218372345
1652389138599571200,0.1215712890625,0.009499549865722656,0.11376094818115234,-0.3185575604438782
1652389138609568800,0.13156884765625,-0.0028629302978515625,0.1339735984802246,-0.3951629400253296
1652389138619566000,0.141566162109375,-0.02898693084716797,0.1819601058959961,-0.504177987575531
1652389138629563600,0.151563720703125,-0.0614166259765625,0.2461552619934082,-0.6324561834335327
1652389138639561200,0.161561279296875,-0.09113693237304688,0.3091144561767578,-0.7432201504707336
1652389138649558800,0.171558837890625,-0.11287403106689453,0.35771751403808594,-0.824526309967041
1652389138659556000,0.18155615234375,-0.12407112121582031,0.38678646087646484,-0.9092475175857544
1652389138669553700,0.1915537109375,-0.12118816375732422,0.38999223709106445,-1.010594367980957
1652389138679551200,0.20155126953125,-0.10767364501953125,0.3752455711364746,-1.1255619525909424
1652389138689548800,0.211548828125,-0.09083938598632812,0.3574957847595215,-1.2447013854980469
1652389138699546400,0.22154638671875,-0.07491779327392578,0.3427696228027344,-1.3512639999389648
1652389138709543700,0.231543701171875,-0.0625600814819336,0.3340940475463867,-1.4382297992706299
1652389138719541200,0.241541259765625,-0.06097126007080078,0.3428788185119629,-1.4960416555404663
1652389138729538800,0.251538818359375,-0.06936454772949219,0.3723444938659668,-1.5509328842163086
1652389138740793900,0.2627939453125,-0.0893392562866211,0.42876672744750977,-1.613248348236084
1652389138750791400,0.27279150390625,-0.12045001983642578,0.5144844055175781,-1.6891906261444092
1652389138760788700,0.282788818359375,-0.16041278839111328,0.6261816024780273,-1.7748883962631226
1652389138770786300,0.292786376953125,-0.20457077026367188,0.7563438415527344,-1.8704884052276611
1652389138780783900,0.302783935546875,-0.24914264678955078,0.8966753482818604,-1.970566749572754
1652389138790781400,0.312781494140625,-0.2895832061767578,1.036313533782959,-2.072655200958252
1652389138800779000,0.322779052734375,-0.31803226470947266,1.15669846534729,-2.18110990524292
1652389138810776600,0.332776611328125,-0.3294687271118164,1.2349514961242676,-2.2807626724243164
1652389138820774100,0.342774169921875,-0.32527923583984375,1.2738289833068848,-2.377073287963867
1652389138830771700,0.352771728515625,-0.30672550201416016,1.2886781692504883,-2.493788242340088
1652389138840769300,0.362769287109375,-0.27451610565185547,1.2801294326782227,-2.6254894733428955
1652389138850766800,0.372766845703125,-0.23162555694580078,1.2491612434387207,-2.757964611053467
1652389138860764200,0.38276416015625,-0.19051265716552734,1.2120957374572754,-2.86570143699646
1652389138870761700,0.39276171875,-0.1599750518798828,1.204836368560791,-2.9709219932556152
1652389138880759300,0.40275927734375,-0.1385211944580078,1.217069149017334,-3.065824508666992
1652389138890756900,0.4127568359375,-0.12185287475585938,1.241572380065918,-3.15673565864563
1652389138900754400,0.42275439453125,-0.9914183616638184,0.38524746894836426,-1.7175037860870361
1652389138910752000,0.432751953125,-0.9751811027526855,0.4024693965911865,-1.791933298110962
1652389138920749600,0.44274951171875,-0.9576411247253418,0.415482759475708,-1.8632676601409912
1652389138930747100,0.4527470703125,-2.0789270401000977,-0.816842794418335,-0.19089174270629883
1652389138940744700,0.46274462890625,-2.2328600883483887,-2.8826801776885986,1.8131639957427979
1652389138950742300,0.4727421875,-2.142270088195801,-2.570284366607666,1.3837356567382812
1652389138960739800,0.48273974609375,-2.6185946464538574,-2.8846116065979004,1.4601426124572754
1652389138970737400,0.4927373046875,-3.7524824142456055,-3.133219003677368,0.8332095146179199
1652389138980735000,0.50273486328125,-3.6016578674316406,-3.3234591484069824,0.09537339210510254
1652389138990732500,0.512732666015625,-2.288593292236328,-3.902243137359619,0.19578194618225098
1652389139000730000,0.522730224609375,-1.2526922225952148,-4.0327653884887695,-0.7057712078094482
1652389139010727700,0.532727783203125,-1.7186775207519531,-4.228097438812256,-2.7703444957733154
1652389139020725200,0.542725341796875,-2.762831687927246,-5.166901588439941,-2.1503853797912598
1652389139030722800,0.552722900390625,-4.1755452156066895,-4.883021354675293,-2.9243736267089844
1652389139040720400,0.562720458984375,-5.939924240112305,-5.74800968170166,-4.308601379394531
1652389139050717700,0.5727177734375,-6.967086315155029,-6.407129287719727,-4.308241844177246
1652389139060715300,0.58271533203125,-7.096644401550293,-6.888631820678711,-4.478023529052734
1652389139070712800,0.592712890625,-7.41709041595459,-8.123844146728516,-5.762421131134033
1652389139080710400,0.60271044921875,-7.363155841827393,-9.175090789794922,-6.729665279388428
1652389139090708000,0.6127080078125,-7.388729095458984,-10.97696304321289,-6.6648125648498535
1652389139100705500,0.62270556640625,-6.912808418273926,-12.856376647949219,-5.15843391418457
1652389139110703000,0.632703125,-6.748200416564941,-13.1826810836792,-3.134939670562744
1652389139120700700,0.64270068359375,-4.909937381744385,-13.09386920928955,-2.167933464050293
1652389139130698200,0.6526982421875,-2.54917049407959,-13.427186965942383,-1.8419361114501953
1652389139140695800,0.66269580078125,-1.95005464553833,-13.090675354003906,-1.920687198638916
1652389139150693400,0.672693359375,0.4887709617614746,-14.015485763549805,-0.9615683555603027
1652389139160691000,0.68269091796875,6.002873420715332,-15.726602554321289,-1.2908129692077637
1652389139170688500,0.6926884765625,10.550139427185059,-16.09406280517578,-1.5836849212646484
1652389139180686000,0.70268603515625,14.567788124084473,-16.51538848876953,0.45302534103393555
1652389139190683600,0.71268359375,17.505430221557617,-15.874791145324707,6.466832637786865
1652389139200681200,0.72268115234375,18.801870346069336,-13.693310737609863,11.491544723510742
1652389139210678800,0.7326787109375,19.66322135925293,-8.37873363494873,13.311558723449707
1652389139220676400,0.74267626953125,18.214643478393555,-5.848284721374512,14.811134338378906
1652389139230674000,0.752673828125,15.03539752960205,-4.289267539978027,15.420543670654297
1652389139240671500,0.76267138671875,11.805671691894531,-2.3302230834960938,13.433204650878906
1652389139250669000,0.7726689453125,11.16712760925293,-1.27001953125,11.21534252166748
1652389139260666600,0.78266650390625,11.636598587036133,-0.9731082916259766,10.79383659362793
1652389139270664200,0.792664306640625,13.601805686950684,-0.193359375,9.769580841064453
1652389139280661800,0.802661865234375,14.078682899475098,0.11727142333984375,10.547184944152832
1652389139290659300,0.812659423828125,13.39600944519043,0.9184389114379883,11.637800216674805
1652389139300657000,0.822656982421875,10.790016174316406,1.932664394378662,12.103404998779297
1652389139310654500,0.832654541015625,7.319579124450684,2.8842549324035645,12.228219985961914
1652389139320652000,0.842652099609375,5.450952529907227,3.2979836463928223,12.69306755065918
1652389139330649600,0.852649658203125,3.1967787742614746,3.652235984802246,13.305624008178711
1652389139340647200,0.862647216796875,0.7109951972961426,4.817644119262695,12.465902328491211
1652389139350644700,0.872644775390625,-8.526333808898926,2.875398635864258,13.990018844604492
1652389139360642300,0.882642333984375,-12.981109619140625,4.472504138946533,11.98229694366455
1652389139370640000,0.892639892578125,-11.853888511657715,3.8841676712036133,11.48351764678955
1652389139380637400,0.902637451171875,-10.38165283203125,2.0979204177856445,11.301369667053223
1652389139390635000,0.912635009765625,-5.468697547912598,1.6051688194274902,9.450435638427734
1652389139400632600,0.922632568359375,-4.520284175872803,1.4657888412475586,5.856693267822266
1652389139410630000,0.9326298828125,-5.894362449645996,0.3299074172973633,2.866544485092163
1652389139420627500,0.94262744140625,-5.506530284881592,-0.18432331085205078,1.6271103620529175
1652389139430625000,0.952625,-4.4105682373046875,-0.9848155975341797,0.3313155174255371
1652389139440622600,0.96262255859375,-0.9234793186187744,0.36778736114501953,-2.1048474311828613
1652389139450620200,0.9726201171875,1.6936490535736084,-0.9792413711547852,-1.895023226737976
1652389139460617700,0.98261767578125,3.2381093502044678,-0.9056158065795898,-3.010725975036621
1652389139470615300,0.992615234375,3.005767822265625,-0.15451431274414062,-3.2639541625976562
1652389139480612900,1.00261279296875,2.0804519653320312,0.5092906951904297,-3.0029234886169434
1652389139490610400,1.0126103515625,0.49411916732788086,1.213334083557129,-2.2757678031921387
1652389139500608000,1.02260791015625,0.2845633029937744,1.3927602767944336,-1.815367579460144
1652389139510605600,1.03260546875,1.3017094135284424,1.1760940551757812,-1.648688554763794
1652389139520603100,1.04260302734375,2.781439781188965,0.3659944534301758,-0.5197241306304932
1652389139530600700,1.0526005859375,2.873948812484741,0.6357030868530273,-0.8343973159790039
1652389139540598300,1.062598388671875,2.5728394985198975,0.39749908447265625,0.7543988227844238
1652389139550595800,1.072595947265625,1.75130033493042,1.0751628875732422,0.25604021549224854
1652389139560593400,1.082593505859375,1.2208669185638428,0.5698633193969727,1.0719712972640991
1652389139570591000,1.092591064453125,0.44083070755004883,1.3671674728393555,2.1803555488586426
1652389139580588500,1.102588623046875,-0.25514137744903564,1.4843502044677734,1.7927210330963135
1652389139590585900,1.1125859375,-0.1700977087020874,0.9738140106201172,0.9290959239006042
1652389139600583400,1.12258349609375,0.6610556840896606,0.627223014831543,0.011835157871246338
1652389139610581000,1.1325810546875,1.265974998474121,1.1444263458251953,0.25478801131248474
1652389139620578600,1.14257861328125,1.1661616563796997,1.0464801788330078,0.3809989094734192
1652389139630576000,1.152576171875,0.7588300704956055,0.4290342330932617,1.084777593612671
1652389139640573700,1.16257373046875,0.39994633197784424,0.48369884490966797,2.1755599975585938
1652389139650571300,1.1725712890625,-0.07416284084320068,1.2425928115844727,2.629674196243286
1652389139660568800,1.18256884765625,-0.5456482172012329,1.755183219909668,2.0183277130126953
1652389139670566400,1.19256640625,-0.4461733400821686,1.7614402770996094,1.8368444442749023
1652389139680564000,1.20256396484375,0.5843779444694519,-0.006656646728515625,-0.2555401027202606
1652389139690561500,1.2125615234375,0.9002355337142944,1.1080427169799805,0.508882999420166
1652389139700559000,1.22255908203125,-0.5347983837127686,0.1163797378540039,0.6274237036705017
1652389139710556700,1.232556640625,-0.4422885775566101,-1.327341079711914,-0.5568511486053467
1652389139720554200,1.24255419921875,-0.12123715877532959,-3.3500747680664062,-2.853360891342163
1652389139730550500,1.252550537109375,0.6367928981781006,-5.6525983810424805,-3.610306978225708
1652389139740548000,1.262548095703125,0.08770972490310669,-5.265088081359863,-2.7763872146606445
1652389139750545700,1.272545654296875,0.4982055425643921,-4.396622657775879,-0.6716840267181396
1652389139760543200,1.282543212890625,0.8437178730964661,-3.2916078567504883,-0.016354084014892578
1652389139770540800,1.292540771484375,1.3734372854232788,-1.1322250366210938,-0.2856975197792053
1652389139780538400,1.302538330078125,0.346426784992218,-1.817953109741211,0.3027077317237854
1652389139790536000,1.312535888671875,-0.7238249182701111,-0.9185056686401367,0.7187836766242981
1652389139800533500,1.322533447265625,-0.9936473965644836,-1.3364276885986328,0.7434443831443787
1652389139810531000,1.332531005859375,-1.0398180484771729,-1.480525016784668,0.618796706199646
1652389139820528600,1.342528564453125,-0.8524618148803711,-1.8993101119995117,0.7846269607543945
1652389139830526200,1.352526123046875,-0.8267236948013306,-2.4129323959350586,-0.004148602485656738
1652389139840523800,1.362523681640625,0.02762885019183159,-2.525904655456543,-0.4012053608894348
1652389139850521300,1.372521240234375,0.7798086404800415,-0.8195409774780273,-2.171124219894409
1652389139860519000,1.382518798828125,0.8990002870559692,1.833906650543213,-0.28062522411346436
1652389139870516500,1.3925166015625,0.03772328794002533,2.191007614135742,0.2877345085144043
1652389139880514000,1.40251416015625,0.22099897265434265,1.4638748168945312,0.2733938694000244
1652389139890511600,1.41251171875,0.9212939143180847,0.8841056823730469,0.40110933780670166
1652389139900509200,1.42250927734375,1.3943465948104858,0.5110130310058594,0.1954258680343628
1652389139910506800,1.4325068359375,2.6031339168548584,0.6046590805053711,1.1981703042984009
1652389139920504300,1.44250439453125,2.5777149200439453,0.695556640625,0.788354754447937
1652389139930502000,1.452501953125,3.681654691696167,0.4485502243041992,0.7212764024734497
1652389139940499500,1.46249951171875,0.0735984742641449,0.1487293243408203,0.8679530620574951
1652389139950497000,1.4724970703125,-0.950648307800293,-0.4715747833251953,0.6991673707962036
1652389139960494600,1.48249462890625,-0.7714049220085144,-0.6988058090209961,0.26870667934417725
1652389139970492200,1.4924921875,0.41129565238952637,-0.2224588394165039,-0.5106175541877747
1652389139980489700,1.50248974609375,-0.06851157546043396,-0.17558956146240234,-0.8511618971824646
1652389139990487300,1.5124873046875,-1.2939972877502441,-0.5462169647216797,-1.20857834815979
1652389140000484900,1.52248486328125,-1.115193486213684,-0.32656192779541016,-0.844756543636322
1652389140010482400,1.532482421875,-1.032533884048462,-0.1576986312866211,-1.012290120124817
1652389140020480000,1.54247998046875,-0.06292581558227539,0.33102989196777344,-1.0274510383605957
1652389140030478600,1.552478515625,0.20617759227752686,0.7312049865722656,-0.6857364177703857
1652389140040476200,1.56247607421875,0.07605534791946411,0.6433582305908203,-0.6113463640213013
1652389140050473700,1.5724736328125,0.348857581615448,0.39105987548828125,-0.5641455054283142
1652389140060471300,1.58247119140625,0.2357766032218933,-0.14561748504638672,-0.7411255836486816
1652389140070468900,1.59246875,0.32031089067459106,0.013715744018554688,-0.629522442817688
1652389140080466400,1.602466552734375,-0.02425628900527954,1.3757686614990234,-0.3629797697067261
1652389140090464000,1.612464111328125,0.3337114751338959,1.4633617401123047,-0.03764235973358154
1652389140100461600,1.622461669921875,0.8584381341934204,1.2641105651855469,-0.2815468907356262
1652389140110459100,1.632459228515625,1.6201539039611816,1.489750862121582,-0.9401201009750366
1652389140120456700,1.642456787109375,1.1667311191558838,5.040820121765137,-0.24854588508605957
1652389140130454300,1.652454345703125,2.151780128479004,6.621247291564941,0.6741042733192444
1652389140140451800,1.662451904296875,0.9336878061294556,2.8046865463256836,1.5635817050933838
1652389140150449400,1.672449462890625,0.9673664569854736,2.803065299987793,1.5378680229187012
1652389140160447000,1.682447021484375,-0.4550415277481079,0.4914665222167969,1.5741478204727173
1652389140170444300,1.6924443359375,-1.6418788433074951,0.3498067855834961,1.232521891593933
1652389140180441900,1.70244189453125,-0.8330923318862915,0.639491081237793,0.2846658229827881
1652389140190439400,1.712439453125,0.7022804021835327,0.4544410705566406,0.04149830341339111
1652389140200437000,1.72243701171875,1.6652748584747314,-0.04097270965576172,0.533380389213562
1652389140210434600,1.7324345703125,1.644801139831543,-0.07764244079589844,0.5848405361175537
1652389140220432100,1.74243212890625,1.528974175453186,0.28211307525634766,0.24524259567260742
1652389140230429700,1.7524296875,1.1798592805862427,0.12642383575439453,-0.010783672332763672
1652389140240427300,1.76242724609375,0.38025161623954773,-1.2064790725708008,-1.3914798498153687
1652389140250424800,1.7724248046875,-0.1920856535434723,-3.099517822265625,-1.9146292209625244
1652389140260422400,1.78242236328125,-0.7115145921707153,-4.954137802124023,-1.0381332635879517
1652389140270420000,1.792419921875,-1.0809262990951538,-5.552681922912598,-0.8193355798721313
1652389140280417500,1.80241748046875,0.9867542386054993,-3.5768346786499023,-0.23877906799316406
1652389140290415000,1.8124150390625,1.39033842086792,-2.247701644897461,1.1465256214141846
1652389140300412700,1.82241259765625,0.41705840826034546,-1.6720514297485352,0.7157118320465088
1652389140310410200,1.83241015625,1.107535481452942,-0.9807624816894531,1.229609489440918
1652389140320407800,1.84240771484375,1.0678845643997192,-0.6342849731445312,1.3501338958740234
1652389140330405400,1.8524052734375,1.1964553594589233,-0.3491392135620117,1.7637090682983398
1652389140340403000,1.86240283203125,1.0773898363113403,0.12134647369384766,2.147974967956543
1652389140350400500,1.872400390625,1.7759389877319336,0.4935169219970703,2.8694701194763184
1652389140360397000,1.88239697265625,1.0486953258514404,0.4663429260253906,-0.23506367206573486
1652389140370428000,1.892427978515625,0.9255867004394531,0.4509744644165039,-0.2730497121810913
1652389140380458800,1.902458740234375,1.671461820602417,0.10186481475830078,0.7697509527206421
1652389140390489900,1.91248974609375,1.5044832229614258,0.21907901763916016,0.75264573097229
1652389140400520700,1.922520751953125,0.4119884967803955,-0.0059566497802734375,0.6314530372619629
1652389140410551600,1.932551513671875,0.42938339710235596,0.14105796813964844,-0.2217799425125122
1652389140420582400,1.94258251953125,1.7897669076919556,-0.9275541305541992,0.14307653903961182
1652389140430613200,1.95261328125,1.236138939857483,-1.4474191665649414,0.09608519077301025
1652389140440644000,1.96264404296875,0.44503891468048096,-2.4308910369873047,-0.15056848526000977
1652389140450675000,1.972675048828125,-0.03434038162231445,-3.3913393020629883,-0.6354409456253052
1652389140460706000,1.9827060546875,-0.12997162342071533,-3.9864444732666016,-1.2005469799041748
1652389140470737000,1.99273681640625,-0.11637771129608154,-3.7473373413085938,-1.8674578666687012
1652389140480767700,2.002767822265625,-0.05802595615386963,-3.739288330078125,-1.8603323698043823
1652389140490798600,2.012798583984375,-0.20083141326904297,-0.8633537292480469,-1.90304434299469
1652389140500829400,2.022829345703125,-0.21665221452713013,0.41782665252685547,-1.282884120941162
1652389140510860300,2.0328603515625,-0.09822690486907959,1.6688189506530762,-1.252264142036438
1652389140520891100,2.04289111328125,0.21195483207702637,2.2510571479797363,-1.0074427127838135
1652389140530922000,2.052921875,0.5064722299575806,2.273651123046875,-0.4887043237686157
1652389140540952800,2.062952880859375,-0.08061504364013672,2.2154126167297363,-0.21864759922027588
1652389140550984000,2.07298388671875,-0.3716686964035034,1.665553092956543,0.3613896369934082
1652389140561014800,2.083014892578125,-1.1098929643630981,1.2767210006713867,-0.17370784282684326
1652389140571045600,2.093045654296875,-1.8559379577636719,0.9274711608886719,-1.0591278076171875
1652389140581076500,2.103076416015625,-2.5783424377441406,0.4189901351928711,-1.8105051517486572
1652389140591107300,2.113107421875,-2.890745162963867,0.07094764709472656,-2.4935672283172607
1652389140601138200,2.12313818359375,-3.0816144943237305,-0.40724658966064453,-3.1330509185791016
1652389140611169000,2.1331689453125,-2.965027332305908,-0.978541374206543,-3.6958236694335938
1652389140621200000,2.143199951171875,-2.6538150310516357,-1.5209312438964844,-3.848973274230957
1652389140631231000,2.15323095703125,-2.2380595207214355,-1.606069564819336,-3.669015884399414
1652389140641261800,2.16326171875,-1.2614303827285767,-1.316232681274414,-3.1896934509277344
1652389140651292700,2.173292724609375,-1.210975170135498,-1.3037233352661133,-3.132774829864502
1652389140661324500,2.183324462890625,-0.44254767894744873,-0.7983741760253906,-2.130228281021118
1652389140671322000,2.193322021484375,1.1107906103134155,0.6778802871704102,-1.103977918624878
1652389140681319700,2.203319580078125,1.1772454977035522,0.6873683929443359,-1.0643179416656494
1652389140691317200,2.213317138671875,1.535709023475647,1.3181943893432617,-0.6427625417709351
1652389140701314800,2.223314697265625,1.4460605382919312,1.6941442489624023,-0.41411125659942627
1652389140711312400,2.2333125,1.2909033298492432,1.9061574935913086,-0.33501094579696655
1652389140721310000,2.24331005859375,1.1077977418899536,1.9280815124511719,-0.23183965682983398
1652389140731307500,2.2533076171875,1.0921781063079834,1.762369155883789,-0.034262895584106445
1652389140741304800,2.263304931640625,0.5069109797477722,1.2654838562011719,-0.10267889499664307
1652389140751302400,2.273302490234375,0.21526998281478882,1.0220670700073242,-0.06389695405960083
1652389140761300000,2.283300048828125,-0.1559949815273285,0.8551340103149414,-0.11857455968856812
1652389140771297500,2.293297607421875,-0.2974701523780823,0.7982473373413086,-0.25928229093551636
1652389140781295000,2.303295166015625,-0.43556642532348633,0.6188745498657227,-0.06707078218460083
1652389140791292700,2.313292724609375,-0.3999198377132416,0.5181865692138672,0.18670201301574707
1652389140801290200,2.323290283203125,-0.4235638678073883,0.5823955535888672,-0.026608765125274658
1652389140811287800,2.333287841796875,-0.226894348859787,0.6463527679443359,-0.133456289768219
1652389140821285400,2.343285400390625,0.08293437957763672,0.6696348190307617,-0.1545335054397583
1652389140831283000,2.353282958984375,0.06819820404052734,0.5569372177124023,-0.147369384765625
1652389140841280500,2.363280517578125,0.6251568794250488,0.4709014892578125,-0.05662888288497925
1652389140851278000,2.373278076171875,0.6909462213516235,0.47338294982910156,-0.06273430585861206
1652389140861275600,2.383275634765625,1.2478690147399902,0.37007617950439453,-0.053046226501464844
1652389140871273200,2.393273193359375,1.51169753074646,0.3355131149291992,0.11745655536651611
1652389140881270800,2.403270751953125,1.5835096836090088,0.33610057830810547,0.10405725240707397
1652389140891268400,2.413268310546875,1.4725396633148193,0.328857421875,0.4824680685997009
1652389140901266000,2.423265869140625,1.2166744470596313,0.6011371612548828,0.4694080948829651
1652389140911263500,2.433263427734375,1.2798571586608887,0.6000280380249023,0.45429253578186035
1652389140921261000,2.443260986328125,1.5480937957763672,0.7997751235961914,0.718445360660553
1652389140931258600,2.453258544921875,1.543783187866211,0.9825611114501953,0.6888160705566406
1652389140941256200,2.463256103515625,1.920517086982727,1.1029157638549805,0.6944451332092285
1652389140951253800,2.473253662109375,1.6587703227996826,0.8068294525146484,0.053869009017944336
1652389140961251300,2.483251220703125,1.31036376953125,0.4561901092529297,-0.400666743516922
1652389140971249000,2.493248779296875,2.321183919906616,0.14412403106689453,-0.6531673669815063
1652389140981246500,2.50324658203125,2.731989622116089,-0.14843368530273438,-1.0862025022506714
1652389140991243800,2.513243896484375,2.769500494003296,-0.5673589706420898,-1.2801074981689453
1652389141001241300,2.523241455078125,3.026078701019287,-1.0596065521240234,-1.0116543769836426
1652389141011239000,2.533239013671875,2.9555094242095947,-1.548783302307129,-0.6711805462837219
1652389141021236500,2.543236572265625,2.899533987045288,-1.5469131469726562,-0.6554557681083679
1652389141031234000,2.553234130859375,2.350268602371216,-2.854625701904297,-0.3831180930137634
1652389141041231600,2.563231689453125,1.9489257335662842,-3.3720970153808594,-0.0771174430847168
1652389141051229200,2.573229248046875,1.4543331861495972,-3.767270088195801,0.44137638807296753
1652389141061226800,2.583226806640625,1.1091972589492798,-4.162289619445801,1.0228151082992554
1652389141071224300,2.593224365234375,0.712778627872467,-4.217142105102539,1.6027069091796875
1652389141081222000,2.603221923828125,0.7135957479476929,-4.214285850524902,1.6441965103149414
1652389141091219500,2.613219482421875,0.02690771222114563,-3.8257980346679688,1.9991545677185059
1652389141101217000,2.623217041015625,-1.8658708333969116,-1.6469383239746094,1.6163171529769897
1652389141111214600,2.633214599609375,-2.9507126808166504,-0.05182456970214844,1.2781232595443726
1652389141121212200,2.643212158203125,-3.317284345626831,1.2697038650512695,0.8335521221160889
1652389141131209700,2.653209716796875,-3.210462808609009,2.4606809616088867,0.24084919691085815
1652389141141207300,2.663207275390625,-2.9465348720550537,3.4877538681030273,-0.3499755859375
1652389141151204900,2.673204833984375,-2.5323855876922607,4.116970062255859,-0.4815274477005005
1652389141161202400,2.683202392578125,-2.3334310054779053,4.595687389373779,-0.763911783695221
1652389141171200000,2.693199951171875,-2.2031002044677734,4.47265100479126,-0.752336859703064
1652389141181197600,2.703197509765625,-1.6303988695144653,3.2130327224731445,0.11394357681274414
1652389141191195100,2.713195068359375,-0.8569958806037903,0.31717586517333984,1.0832915306091309
1652389141201192700,2.723192626953125,-0.15164077281951904,-3.2382030487060547,1.5491323471069336
1652389141211190300,2.733190185546875,-0.25032854080200195,-6.356639862060547,1.3446285724639893
1652389141221187600,2.7431875,-1.4696146249771118,-8.037341117858887,1.2835417985916138
1652389141231185200,2.75318505859375,-3.356781482696533,-7.8386030197143555,1.9565813541412354
1652389141241182700,2.7631826171875,-5.04172420501709,-4.947646141052246,1.4770785570144653
1652389141251180300,2.77318017578125,-5.06105899810791,-4.952861785888672,1.4505311250686646
1652389141261177900,2.783177734375,-4.367066383361816,-0.13588428497314453,0.27727729082107544
1652389141271175400,2.793175537109375,-3.1459994316101074,1.6581754684448242,-0.039361774921417236
1652389141281173000,2.803173095703125,-1.919710636138916,3.330448627471924,-0.5303891897201538
1652389141291170600,2.813170654296875,-0.6121041774749756,4.278739929199219,-0.7310183048248291
1652389141301168000,2.823168212890625,-0.5466797351837158,4.2838945388793945,-0.7716471552848816
1652389141311165700,2.833165771484375,0.8225748538970947,4.467273712158203,-0.8396088480949402
1652389141321163300,2.843163330078125,1.8176429271697998,4.110537528991699,-0.8655698299407959
1652389141331160800,2.853160888671875,1.990977168083191,3.5290589332580566,-1.008354663848877
1652389141341158400,2.863158447265625,1.5202877521514893,2.9461312294006348,-1.0385704040527344
1652389141351156000,2.873156005859375,0.04161238670349121,2.355881690979004,-1.1167925596237183
1652389141361153500,2.883153564453125,-0.8637698292732239,1.9500832557678223,-1.0366300344467163
1652389141371151000,2.893151123046875,-1.7173495292663574,0.7606258392333984,-1.01286780834198
1652389141381148700,2.903148681640625,-1.2291651964187622,0.2417154312133789,-0.4372784495353699
1652389141391146200,2.913146240234375,-0.62261962890625,0.08916950225830078,-0.3595392107963562
1652389141401143800,2.923143798828125,-0.0833590030670166,0.33528804779052734,-0.30352646112442017
1652389141411141400,2.933141357421875,0.9055182933807373,0.6726531982421875,-0.14116370677947998
1652389141421138700,2.943138671875,0.7519044876098633,0.8486623764038086,-0.23195230960845947
1652389141431136300,2.95313623046875,1.0751491785049438,1.1438474655151367,-0.24065768718719482
1652389141441133800,2.9631337890625,0.8846533298492432,1.1306343078613281,0.03258633613586426
1652389141451131400,2.97313134765625,0.889877438545227,1.2054023742675781,0.4629819393157959
1652389141461129000,2.98312890625,0.9070640802383423,1.0535287857055664,0.8892110586166382
1652389141471126500,2.99312646484375,1.0250365734100342,0.8956022262573242,1.3267654180526733
1652389141481124000,3.0031240234375,1.3002983331680298,0.9099006652832031,1.8953890800476074
1652389141491121700,3.01312158203125,1.6163349151611328,0.9168214797973633,2.4326045513153076
1652389141501119200,3.023119140625,1.9104738235473633,0.6755170822143555,2.7570810317993164
1652389141511116800,3.03311669921875,2.4234564304351807,0.12724781036376953,2.9740326404571533
1652389141521114400,3.0431142578125,2.8320350646972656,-0.42105770111083984,2.7839889526367188
1652389141531112000,3.05311181640625,3.091787815093994,-0.938166618347168,2.4208059310913086
1652389141541109500,3.063109619140625,2.8605878353118896,-1.3612651824951172,1.9625275135040283
1652389141551107000,3.073107177734375,2.1834380626678467,-1.7038803100585938,1.4461371898651123
1652389141561104600,3.083104736328125,1.3586440086364746,-1.9257698059082031,1.1203351020812988
1652389141571102200,3.093102294921875,0.49696171283721924,-2.273061752319336,0.9019863605499268
1652389141581099800,3.103099853515625,-0.7178983688354492,-3.4716367721557617,0.04446148872375488
1652389141591097300,3.113097412109375,-0.723273754119873,-3.475809097290039,0.02415454387664795
1652389141601095000,3.123094970703125,-2.285393714904785,-9.351449966430664,-1.3032963275909424
1652389141611092500,3.133092529296875,-2.651258945465088,-11.732007026672363,-1.5670058727264404
1652389141621090000,3.143090087890625,-3.0789003372192383,-10.709165573120117,-2.9342446327209473
1652389141631087600,3.153087646484375,-3.054318904876709,-10.710254669189453,-2.9712471961975098
1652389141641085200,3.163085205078125,-3.6160573959350586,1.2011804580688477,-5.2533955574035645
1652389141651082800,3.173082763671875,-3.1015491485595703,3.944295883178711,-4.308812618255615
1652389141661080300,3.183080322265625,-3.006336212158203,3.9567508697509766,-4.331754207611084
1652389141671078000,3.193077880859375,-1.925066351890564,4.6243157386779785,-3.5592479705810547
1652389141681075500,3.203075439453125,-0.9504136443138123,4.254410743713379,-2.932529926300049
1652389141691073000,3.213072998046875,-0.4378355145454407,3.6296286582946777,-2.41618275642395
1652389141701070600,3.223070556640625,-0.09265565872192383,3.2632126808166504,-2.1767635345458984
1652389141711068200,3.233068115234375,-0.08201909065246582,2.6832547187805176,-2.085254669189453
1652389141721065700,3.243065673828125,-0.43533700704574585,1.5092506408691406,-2.2506327629089355
1652389141731063300,3.253063232421875,-0.7583746910095215,0.2135334014892578,-2.518228530883789
1652389141741060600,3.263060546875,-2.3724846839904785,-2.1528615951538086,-2.4868059158325195
1652389141751058200,3.27305810546875,-3.161972999572754,-2.9255762100219727,-2.273881673812866
1652389141761055700,3.2830556640625,-3.5336060523986816,-3.0495405197143555,-2.524773120880127
1652389141771053300,3.29305322265625,-2.986226797103882,-2.7096967697143555,-2.353261947631836
1652389141781051000,3.30305078125,-1.3660248517990112,-1.6080188751220703,-1.8766990900039673
1652389141791048400,3.31304833984375,0.004700124263763428,0.005600929260253906,-1.8429620265960693
1652389141801046000,3.3230458984375,1.208457112312317,1.4558753967285156,-1.6685283184051514
1652389141811043600,3.333043701171875,2.340585231781006,2.5029654502868652,-0.8503957390785217
1652389141821041200,3.343041259765625,2.8316729068756104,3.0988221168518066,-0.32877448201179504
1652389141831038700,3.353038818359375,2.7110977172851562,3.408649444580078,0.035817086696624756
1652389141841036300,3.363036376953125,2.2570648193359375,3.4596381187438965,0.3234195113182068
1652389141851033900,3.373033935546875,1.4180537462234497,3.4488348960876465,0.6020523309707642
1652389141861031400,3.383031494140625,0.677784264087677,3.3005433082580566,0.9031351804733276
1652389141871029000,3.393029052734375,-0.12684202194213867,3.113790988922119,0.9131448268890381
1652389141881026600,3.403026611328125,-0.8721407651901245,2.5828371047973633,0.835314929485321
1652389141891024100,3.413024169921875,-1.1789708137512207,1.8184514045715332,0.8214431405067444
1652389141901021700,3.423021728515625,-1.114120364189148,0.9675884246826172,0.6549594402313232
1652389141911019300,3.433019287109375,-0.7861945629119873,-0.09529781341552734,0.6290518641471863
1652389141921016800,3.443016845703125,-0.6952673196792603,-0.08990764617919922,0.6328328847885132
1652389141931014400,3.453014404296875,-0.3445885181427002,-0.9013919830322266,0.6952627897262573
1652389141941012000,3.463011962890625,-0.12246200442314148,-1.3717565536499023,0.42510712146759033
1652389141951009500,3.473009521484375,0.904350757598877,-1.640451431274414,0.5894410014152527
1652389141961007000,3.483007080078125,1.0814123153686523,-1.3411026000976562,0.28893399238586426
1652389141971004700,3.493004638671875,1.1301366090774536,-0.8274707794189453,0.21315842866897583
1652389141981002200,3.503002197265625,1.0013660192489624,0.19806957244873047,0.14402306079864502
1652389141990999800,3.512999755859375,1.0052932500839233,0.6153202056884766,0.20374912023544312
1652389142000997400,3.522997314453125,1.0548961162567139,1.0491256713867188,0.24033641815185547
1652389142010994700,3.53299462890625,1.5214006900787354,1.4775762557983398,0.3153477907180786
1652389142020992300,3.5429921875,1.4770960807800293,1.709024429321289,0.05236005783081055
1652389142030989800,3.55298974609375,1.657055139541626,1.666524887084961,-0.2601695954799652
1652389142040987400,3.5629873046875,2.7699317932128906,1.0969457626342773,-0.042306363582611084
1652389142050985000,3.57298486328125,3.1105847358703613,0.28829383850097656,-0.04618626832962036
1652389142060982500,3.582982421875,3.2415366172790527,-0.4238014221191406,0.10969984531402588
1652389142070980000,3.59297998046875,4.354043006896973,-0.9000005722045898,0.5421361923217773
1652389142080977700,3.602977783203125,4.020634174346924,-1.0756549835205078,0.5238645076751709
1652389142090975200,3.612975341796875,3.6344265937805176,-1.1355295181274414,0.47383272647857666
1652389142100972800,3.622972900390625,3.6309421062469482,-1.173360824584961,0.33243328332901
1652389142110970400,3.632970458984375,3.3174262046813965,-1.373702049255371,0.07326704263687134
1652389142120968000,3.642968017578125,2.7442522048950195,-1.2938575744628906,0.16811585426330566
1652389142130965500,3.652965576171875,2.354907751083374,-1.1520843505859375,0.37408292293548584
1652389142140963000,3.662963134765625,1.81892991065979,-1.3673620223999023,0.5061373710632324
1652389142150960600,3.672960693359375,1.024472713470459,-1.823883056640625,0.9797932505607605
1652389142160958200,3.682958251953125,0.920849084854126,-1.8207359313964844,1.0114214420318604
1652389142170955800,3.692955810546875,-0.16519366204738617,-2.154597282409668,1.8744853734970093
1652389142180953300,3.702953369140625,-1.7652812004089355,-2.0057172775268555,2.4284188747406006
1652389142190951000,3.712950927734375,-3.3521509170532227,-0.8472385406494141,2.1960256099700928
1652389142200948500,3.722948486328125,-4.081369876861572,0.6030635833740234,1.6311256885528564
1652389142210946000,3.732946044921875,-4.348636627197266,1.8495488166809082,0.5434145331382751
1652389142220943600,3.742943603515625,-3.1761786937713623,2.366434097290039,-0.4132070541381836
1652389142230941200,3.752941162109375,-2.642352342605591,1.4773197174072266,-0.03140145540237427
1652389142240938800,3.762938720703125,-2.5625205039978027,0.025934219360351562,0.4752390384674072
1652389142250936300,3.772936279296875,-2.4844725131988525,-2.147104263305664,0.6370948553085327
1652389142260934000,3.782933837890625,-1.9594465494155884,-4.181003570556641,0.6882405281066895
1652389142270931500,3.792931396484375,-1.505618929862976,-6.146004676818848,1.2166357040405273
1652389142280928800,3.8029287109375,-1.996515154838562,-7.013688087463379,1.7195241451263428
1652389142290926300,3.81292626953125,-2.8090438842773438,-5.787631988525391,2.3739471435546875
1652389142300924000,3.822923828125,-3.830242156982422,-3.5263328552246094,2.3930864334106445
1652389142310921500,3.83292138671875,-4.334760665893555,-1.2219266891479492,2.0849175453186035
1652389142320919000,3.8429189453125,-3.3413383960723877,0.38460540771484375,1.888877272605896
1652389142330916600,3.85291650390625,-2.008434295654297,1.8620452880859375,1.4564566612243652
1652389142340914200,3.8629140625,-0.6038880348205566,3.1621174812316895,1.2437893152236938
1652389142350911700,3.872911865234375,0.37360286712646484,3.9391469955444336,1.2042585611343384
1652389142360909300,3.882909423828125,1.2383424043655396,3.9990620613098145,0.32609713077545166
1652389142370907000,3.892906982421875,2.311708927154541,3.557837963104248,0.41194403171539307
1652389142380904400,3.902904541015625,2.5037550926208496,2.9618706703186035,0.05466270446777344
1652389142390902000,3.912902099609375,2.46885347366333,2.9502768516540527,-0.0006560087203979492
1652389142400899600,3.922899658203125,1.1744807958602905,2.5422134399414062,-0.6263641119003296
1652389142410897200,3.932897216796875,0.03989994525909424,2.17903470993042,-1.08180832862854
1652389142420894700,3.942894775390625,-0.9362416863441467,1.7394514083862305,-1.4804760217666626
1652389142430892300,3.952892333984375,-1.6472033262252808,1.2103357315063477,-1.7724528312683105
1652389142440889900,3.962889892578125,-1.9571161270141602,0.6743507385253906,-1.9563283920288086
1652389142450887400,3.972887451171875,-1.0326509475708008,0.23494243621826172,-1.856550931930542
1652389142460851500,3.9828515625,-1.7739574909210205,0.23872089385986328,-2.3288192749023438
1652389142470815700,3.992815673828125,-0.9346221089363098,0.2985343933105469,-1.679728627204895
1652389142480780000,4.002780029296875,0.4275784492492676,0.5960569381713867,-1.2180330753326416
1652389142490744300,4.012744384765625,1.158158779144287,0.9117326736450195,-0.837715744972229
1652389142500708600,4.02270849609375,0.8502254486083984,0.9255180358886719,-0.46917086839675903
1652389142510672600,4.032672607421875,0.9738820791244507,0.7982683181762695,-0.014615893363952637
1652389142520637000,4.042636962890625,1.2454586029052734,0.629399299621582,0.35469579696655273
1652389142530601200,4.052601318359375,1.2635836601257324,0.6374273300170898,0.4020642042160034
1652389142540565500,4.0625654296875,1.4655264616012573,0.4150552749633789,0.8583823442459106
1652389142550529500,4.072529541015625,1.772303581237793,0.3228034973144531,1.492478609085083
1652389142560493800,4.082493896484375,2.0561413764953613,0.43805503845214844,2.1572420597076416
1652389142570458000,4.0924580078125,2.135143280029297,0.512639045715332,2.7409048080444336
1652389142580422400,4.10242236328125,2.064678192138672,0.364013671875,2.9522337913513184
1652389142590386700,4.11238671875,2.1795456409454346,0.01699066162109375,2.987910270690918
1652389142600350700,4.122350830078125,2.5629167556762695,-0.22968387603759766,2.8183114528656006
1652389142610315000,4.13231494140625,2.757042169570923,-0.27480220794677734,2.3645970821380615
1652389142620279300,4.142279296875,2.83984375,-0.3628959655761719,1.6747617721557617
1652389142630243600,4.15224365234375,2.4583051204681396,-0.6461019515991211,1.238951563835144
1652389142640208000,4.162207763671875,0.18296146392822266,-1.7524442672729492,1.2822551727294922
1652389142650172000,4.172171875,-0.7955679893493652,-2.1893224716186523,1.3265795707702637
1652389142660136200,4.18213623046875,-1.8013029098510742,-3.573793411254883,0.9027780294418335
1652389142670100500,4.1921005859375,-1.7154226303100586,-6.896184921264648,0.526043176651001
1652389142680064800,4.202064697265625,-1.5204927921295166,-9.282599449157715,0.304599404335022
1652389142690028800,4.21202880859375,-2.2750706672668457,-9.546964645385742,-0.8969904184341431
1652389142699993000,4.2219931640625,-3.683590888977051,-7.550418853759766,-2.841829299926758
1652389142709957400,4.231957275390625,-5.1485090255737305,-3.3886022567749023,-4.590880393981934
1652389142719921700,4.241921630859375,-5.256161689758301,0.4652843475341797,-5.56208610534668
1652389142729886000,4.251885986328125,-4.395298957824707,2.8329458236694336,-5.51928186416626
1652389142739850000,4.26185009765625,-2.863712787628174,3.779064178466797,-4.297085285186768
1652389142749814300,4.271814208984375,-1.6316008567810059,4.0197577476501465,-3.598593235015869
1652389142759811800,4.281811767578125,-0.5555834770202637,4.147789478302002,-3.4005508422851562
1652389142769809400,4.291809326171875,0.023288249969482422,3.9826507568359375,-3.314330816268921
1652389142779807000,4.301806884765625,0.11511087417602539,3.9965505599975586,-3.2903032302856445
1652389142789804500,4.311804443359375,0.3222277760505676,3.4452481269836426,-2.8671059608459473
1652389142799802000,4.321802001953125,0.47394275665283203,2.467019557952881,-2.447345733642578
1652389142809799700,4.331799560546875,0.6390275359153748,1.31005859375,-2.0548453330993652
1652389142819797200,4.34179736328125,0.6008168458938599,-0.1838817596435547,-1.5466506481170654
1652389142829794800,4.351794921875,-1.0592730045318604,-2.2124576568603516,-1.5876357555389404
1652389142839792400,4.36179248046875,-1.9306594133377075,-2.8943748474121094,-1.532166838645935
1652389142849790000,4.3717900390625,-1.9074357748031616,-2.881768226623535,-1.4470536708831787
1652389142859787500,4.38178759765625,-1.498587965965271,-3.0545034408569336,-1.1186089515686035
1652389142869785000,4.39178515625,-0.4371810853481293,-2.4048919677734375,-1.032946228981018
1652389142879782700,4.40178271484375,0.9857017993927002,-0.5714244842529297,-1.147215723991394
1652389142889780200,4.4117802734375,1.985400676727295,1.2797374725341797,-1.024190068244934
1652389142899777800,4.42177783203125,2.4905574321746826,2.3398618698120117,-0.41282370686531067
1652389142909775400,4.431775390625,2.499507427215576,2.956552505493164,0.1304723024368286
1652389142919772700,4.441772705078125,2.014739751815796,3.2118515968322754,0.7724822163581848
1652389142929770200,4.451770263671875,1.2207235097885132,3.3152151107788086,1.0539958477020264
1652389142939767800,4.461767822265625,0.2317606806755066,3.165459156036377,1.2205959558486938
1652389142949765400,4.471765380859375,-0.7591748237609863,2.002802848815918,1.6619256734848022
1652389142959763000,4.481762939453125,-0.718105673789978,1.235154151916504,1.6457747220993042
1652389142969760500,4.491760498046875,-0.2812058627605438,0.30394458770751953,1.5248501300811768
1652389142979758000,4.501758056640625,0.8442418575286865,-0.507349967956543,1.5126125812530518
1652389142989755600,4.511755615234375,1.3276946544647217,-1.1882925033569336,1.130674123764038
1652389142999753200,4.521753173828125,1.7186537981033325,-1.6415777206420898,0.7754902243614197
1652389143009750800,4.531750732421875,2.13460111618042,-1.644181251525879,0.6127867102622986
1652389143019748400,4.541748291015625,2.0827314853668213,-1.0805473327636719,0.2006092667579651
1652389143029746000,4.551745849609375,1.5021806955337524,-0.2061166763305664,0.046454787254333496
1652389143039743500,4.561743408203125,1.5302890539169312,0.7785043716430664,0.15815168619155884
1652389143049741000,4.571740966796875,1.2548614740371704,1.5356216430664062,0.32253289222717285
1652389143059738600,4.581738525390625,1.2493020296096802,2.1632399559020996,0.39053165912628174
1652389143069736200,4.591736083984375,1.4889307022094727,2.455186367034912,0.7154110670089722
1652389143079733800,4.601733642578125,1.4273030757904053,2.6029624938964844,0.4447879195213318
1652389143089731300,4.6117314453125,1.9394075870513916,2.3503150939941406,0.41407740116119385
1652389143099729000,4.62172900390625,1.6895020008087158,1.8603997230529785,0.03184092044830322
1652389143109726500,4.6317265625,3.1921987533569336,1.088179588317871,0.447884202003479
1652389143119724000,4.64172412109375,3.5017130374908447,0.3647022247314453,0.6808891296386719
1652389143129721600,4.6517216796875,3.2485592365264893,-0.22326374053955078,0.6610804796218872
1652389143139719200,4.66171923828125,3.209801197052002,-0.2240915298461914,0.6346197128295898
1652389143149716500,4.671716552734375,2.9566450119018555,-1.0336065292358398,0.849328875541687
1652389143159714000,4.681714111328125,2.9425954818725586,-1.7064704895019531,0.6826539039611816
1652389143169711600,4.691711669921875,3.2153642177581787,-2.312037467956543,0.6123107671737671
1652389143179709200,4.701709228515625,3.020075798034668,-2.7879228591918945,0.20363390445709229
1652389143189706800,4.711706787109375,2.5819313526153564,-3.043328285217285,0.20549345016479492
1652389143199704300,4.721704345703125,2.2403452396392822,-2.9110231399536133,0.34296953678131104
1652389143209702000,4.731701904296875,1.6591031551361084,-2.7592058181762695,0.6738842725753784
1652389143219699500,4.741699462890625,0.3649156987667084,-2.144266128540039,1.7971937656402588
1652389143229697000,4.751697021484375,-0.8393403887748718,-1.6742429733276367,2.3717236518859863
1652389143239694600,4.761694580078125,-2.4825692176818848,-0.33959102630615234,2.4528446197509766
1652389143249692200,4.771692138671875,-3.170956611633301,1.2160072326660156,2.0946731567382812
1652389143259689700,4.781689697265625,-3.447136163711548,2.4453206062316895,1.0150952339172363
1652389143269687300,4.791687255859375,-3.373548984527588,3.3025922775268555,0.2707887291908264
1652389143279684900,4.801684814453125,-2.9129137992858887,3.6476430892944336,-0.20932525396347046
1652389143289682400,4.811682373046875,-2.401416301727295,3.328580856323242,-0.25671547651290894
1652389143299680000,4.821679931640625,-2.3005857467651367,2.2371363639831543,0.1553860306739807
1652389143309677600,4.831677490234375,-1.9405326843261719,-0.18537425994873047,0.986595630645752
1652389143319675100,4.841675048828125,-1.4688352346420288,-3.22707462310791,1.164186716079712
1652389143329672700,4.851672607421875,-1.249064564704895,-6.27445125579834,1.1952509880065918
1652389143339670300,4.861670166015625,-1.4061179161071777,-8.395454406738281,1.1881470680236816
1652389143349667800,4.871667724609375,-1.469316005706787,-8.407402038574219,1.1765953302383423
1652389143359665400,4.88166552734375,-2.645017623901367,-8.012873649597168,1.5581252574920654
1652389143369663000,4.8916630859375,-3.9350743293762207,-5.398770332336426,1.7133558988571167
1652389143379660500,4.90166064453125,-4.047533988952637,-0.26647472381591797,1.0832220315933228
1652389143389658000,4.911658203125,-2.419152021408081,1.431462287902832,0.961378812789917
1652389143399655400,4.921655517578125,-1.11442232131958,3.039677143096924,0.7203739881515503
1652389143409653200,4.9316533203125,0.1739368438720703,4.351494312286377,0.19701051712036133
1652389143419650600,4.941650634765625,1.2969818115234375,4.80195951461792,-0.04875051975250244
1652389143429648400,4.9516484375,2.499873399734497,4.53537130355835,0.0015157461166381836
1652389143439646000,4.96164599609375,2.5335981845855713,4.533819675445557,-0.04424846172332764
1652389143449643500,4.9716435546875,2.8763833045959473,3.680630683898926,-0.3964200019836426
1652389143459641000,4.98164111328125,1.7616478204727173,2.9098024368286133,-0.8849393725395203
1652389143469638700,4.991638671875,0.8101569414138794,2.4109835624694824,-1.2341097593307495
1652389143479636200,5.00163623046875,0.08242034912109375,1.830965518951416,-1.465335726737976
1652389143489633500,5.011633544921875,-0.9743553400039673,0.6698398590087891,-1.6027190685272217
1652389143499631000,5.021631103515625,-1.1437618732452393,0.3086967468261719,-1.69434654712677
1652389143509628700,5.031628662109375,-1.1572492122650146,0.3052864074707031,-1.7010059356689453
1652389143519626200,5.041626220703125,-1.120668888092041,0.25904178619384766,-1.390246033668518
1652389143529623800,5.051623779296875,-1.191737413406372,0.45578575134277344,-1.4861071109771729
1652389143539621400,5.061621337890625,-1.2289330959320068,0.6983003616333008,-1.3370006084442139
1652389143549619000,5.071618896484375,-0.01895308494567871,1.176203727722168,-0.828877866268158
1652389143559616500,5.081616455078125,0.6859124898910522,1.6881394386291504,-0.4348158836364746
1652389143569614000,5.091614013671875,0.7117767333984375,1.7004342079162598,-0.37625575065612793
1652389143579611600,5.101611572265625,0.8763843774795532,1.8425712585449219,-0.011999011039733887
1652389143589609200,5.111609130859375,0.9204380512237549,1.6830615997314453,0.28151464462280273
1652389143599606800,5.121606689453125,0.8538768291473389,1.2281618118286133,0.5859471559524536
1652389143609604400,5.131604248046875,0.9941288232803345,0.8525590896606445,1.064913272857666
1652389143619602000,5.141601806640625,1.4679487943649292,0.4110984802246094,1.729427695274353
1652389143629599500,5.151599609375,2.0001707077026367,-0.30147647857666016,2.2671329975128174
1652389143639597000,5.16159716796875,2.3974204063415527,-0.8774118423461914,2.3079166412353516
1652389143649594600,5.1715947265625,2.904560089111328,-1.0348272323608398,2.333890914916992
1652389143659592200,5.18159228515625,2.929241895675659,-1.0371170043945312,2.652359962463379
1652389143669589800,5.19158984375,2.4908862113952637,-1.244394302368164,2.3727054595947266
1652389143679587300,5.20158740234375,2.378714084625244,-1.3427734375,2.09682559967041
1652389143689585000,5.2115849609375,1.7946953773498535,-1.5386714935302734,2.1730599403381348
1652389143699582500,5.22158251953125,0.07895767688751221,-2.8348464965820312,2.1735565662384033
1652389143709579800,5.231579833984375,-1.742501139640808,-5.107439041137695,1.674404263496399
1652389143719577300,5.241577392578125,-2.4767143726348877,-8.18785285949707,1.244322419166565
1652389143729575000,5.251574951171875,-1.9905774593353271,-10.213354110717773,0.8848509788513184
1652389143739572500,5.261572509765625,-2.357889175415039,-8.688166618347168,-1.3358500003814697
1652389143749570000,5.271570068359375,-3.7853126525878906,-5.206995964050293,-3.300647258758545
1652389143759567600,5.281567626953125,-4.712889671325684,-1.512542724609375,-4.913516521453857
1652389143769565200,5.291565185546875,-4.256433486938477,1.4005136489868164,-5.61800479888916
1652389143779562800,5.301562744140625,-2.6066653728485107,3.269597053527832,-5.283928394317627
1652389143789560300,5.311560302734375,-1.2527185678482056,3.6724610328674316,-4.559385776519775
1652389143799558000,5.321557861328125,-0.4528651237487793,3.5048112869262695,-3.7606194019317627
1652389143809555500,5.331555419921875,-0.07537448406219482,3.2370758056640625,-3.206491470336914
1652389143819553000,5.341552978515625,0.020078182220458984,2.788410186767578,-2.9828672409057617
1652389143829550600,5.351550537109375,0.06651568412780762,2.796968460083008,-2.9663515090942383
1652389143839548200,5.361548095703125,-0.012011528015136719,1.7692465782165527,-2.697932243347168
1652389143849545700,5.371545654296875,-0.05057215690612793,0.20285511016845703,-2.4861786365509033
1652389143859543300,5.381543212890625,-0.28859370946884155,-1.332193374633789,-2.247887134552002
1652389143869540900,5.391540771484375,-0.8051716685295105,-2.5931625366210938,-1.6536622047424316
1652389143879538400,5.401538330078125,-1.735868215560913,-3.2028236389160156,-1.3714542388916016
1652389143889536000,5.411535888671875,-2.4299421310424805,-2.180413246154785,-2.2996826171875
1652389143899533600,5.421533447265625,-1.3125582933425903,-1.2211065292358398,-2.357820749282837
1652389143909531100,5.43153125,0.08264529705047607,-0.06137847900390625,-1.9593448638916016
1652389143919528700,5.44152880859375,0.18684715032577515,-0.040526390075683594,-1.8537089824676514
1652389143929526300,5.4515263671875,1.4433016777038574,1.1843290328979492,-1.3686988353729248
1652389143939523800,5.46152392578125,2.55026912689209,2.3657760620117188,-0.8114863634109497
1652389143949521400,5.471521484375,3.1116816997528076,3.337050437927246,0.03422391414642334
1652389143959519000,5.48151904296875,2.414511203765869,3.991271495819092,1.169865369796753
1652389143969516500,5.4915166015625,1.5531620979309082,4.0345916748046875,1.5289335250854492
1652389143979514000,5.50151416015625,0.3809526562690735,3.802952289581299,1.7654011249542236
1652389143989511700,5.51151171875,-0.5500352382659912,3.3457674980163574,1.8919613361358643
1652389143999509200,5.52150927734375,-1.2937332391738892,2.7005181312561035,1.797337532043457
1652389144009506800,5.5315068359375,-1.2001948356628418,1.8728766441345215,1.6885839700698853
1652389144019504400,5.54150439453125,-0.9274744987487793,1.0158653259277344,1.472121238708496
1652389144029501700,5.551501708984375,-0.5553615093231201,0.030683517456054688,1.1725678443908691
1652389144039499300,5.561499267578125,0.03320536017417908,-1.0357446670532227,0.7061085104942322
1652389144049496800,5.571496826171875,0.6090945601463318,-1.6360549926757812,0.1588941216468811
1652389144059494400,5.581494384765625,1.7154791355133057,-1.9054145812988281,0.009795427322387695
1652389144069492000,5.591491943359375,1.0913130044937134,-1.3054885864257812,-0.742730975151062
1652389144079489500,5.601489501953125,1.588744044303894,-0.7478713989257812,-0.8164119124412537
1652389144089487000,5.611487060546875,1.6182100772857666,-0.20287132263183594,-0.6088970899581909
1652389144099484700,5.621484619140625,1.4892945289611816,0.42348670959472656,-0.41297125816345215
1652389144109482200,5.631482177734375,1.4580034017562866,1.078547477722168,-0.3080267310142517
1652389144119479800,5.641479736328125,1.9198319911956787,1.496281623840332,-0.029790401458740234
1652389144129477400,5.651477294921875,1.9990382194519043,1.7340803146362305,0.030364155769348145
1652389144139475000,5.661474853515625,3.089752674102783,1.6264734268188477,0.38614392280578613
1652389144149472500,5.671472412109375,3.2650465965270996,1.128331184387207,0.7017704248428345
1652389144159470000,5.681469970703125,3.287745475769043,1.1234636306762695,0.6705776453018188
1652389144169467600,5.691467529296875,4.559087753295898,0.11843109130859375,1.3769266605377197
1652389144179465200,5.70146533203125,3.869422674179077,-0.2703275680541992,1.2002941370010376
1652389144189462500,5.711462646484375,2.964205026626587,-0.7893753051757812,1.0919885635375977
1652389144199460000,5.721460205078125,2.907313823699951,-0.7900524139404297,1.063281774520874
1652389144209457700,5.731457763671875,3.058729410171509,-1.3885393142700195,0.8090219497680664
1652389144219455200,5.741455322265625,2.9808855056762695,-1.8162622451782227,-0.06713008880615234
1652389144229452800,5.751452880859375,2.7524452209472656,-1.9152593612670898,-0.753694474697113
1652389144239450400,5.761450439453125,1.806963324546814,-0.9294309616088867,-0.9397143125534058
1652389144249448000,5.771447998046875,1.2365354299545288,-0.5443658828735352,-0.7480212450027466
1652389144259445500,5.781445556640625,0.6689628958702087,-0.2834348678588867,-0.333374559879303
1652389144269443000,5.791443115234375,0.08709408342838287,-0.40985107421875,0.9264754056930542
1652389144279440600,5.801440673828125,-1.2713671922683716,-0.24137401580810547,2.505707263946533
1652389144289438200,5.811438232421875,-1.4516868591308594,-0.23902130126953125,2.5679097175598145
1652389144299435800,5.821435791015625,-2.4170546531677246,0.5947446823120117,3.4251151084899902
1652389144309433300,5.831433349609375,-3.249004364013672,1.6244592666625977,2.6321372985839844
1652389144319431000,5.841430908203125,-4.129334926605225,2.0909037590026855,1.3255693912506104
1652389144329428500,5.851428466796875,-3.924698829650879,1.7701411247253418,1.091198444366455
1652389144339426000,5.861426025390625,-2.6046321392059326,-1.4711132049560547,2.6108615398406982
1652389144349423600,5.871423583984375,-2.8263375759124756,-3.3720951080322266,2.7949509620666504
1652389144359421200,5.881421142578125,-3.066025972366333,-5.94882869720459,3.2862744331359863
1652389144658283800,6.18028369140625,-3.254401206970215,-6.033170700073242,2.876725673675537
1652389144668280800,6.19028076171875,3.111940860748291,-1.0120325088500977,3.151733160018921
1652389144678278400,6.2002783203125,3.290996789932251,-1.5284442901611328,3.1970720291137695
1652389144688275700,6.210275634765625,1.7755491733551025,-1.3090133666992188,2.8217906951904297
1652389144698523400,6.2205234375,1.7405710220336914,-1.3258399963378906,2.7603366374969482
1652389144708721000,6.230720947265625,0.8297152519226074,-1.2464628219604492,2.2043099403381348
1652389144718885000,6.240885009765625,0.6656472682952881,-1.6361618041992188,1.5579942464828491
1652389144729025300,6.251025390625,0.48381972312927246,-1.623361587524414,1.45193612575531
1652389144739147800,6.261147705078125,0.2631683349609375,-1.614480972290039,1.0548458099365234
1652389144749256400,6.27125634765625,-1.0910658836364746,-2.8917465209960938,0.09926295280456543
1652389144759353900,6.281353759765625,-1.9358805418014526,-5.2924346923828125,-0.7852261066436768
1652389144769442300,6.2914423828125,-1.8482434749603271,-7.936105728149414,-1.0353081226348877
1652389144779523000,6.301523193359375,-2.777576208114624,-8.824711799621582,-2.0732226371765137
1652389144789597700,6.31159765625,-4.490209579467773,-7.113260269165039,-4.429408550262451
1652389144799666700,6.321666748046875,-5.434112548828125,-3.6961584091186523,-6.786761283874512
1652389144809730800,6.331730712890625,-4.713014602661133,0.47608089447021484,-7.410130977630615
1652389144819790800,6.341790771484375,-3.715000867843628,2.5948500633239746,-5.677741527557373
1652389144829847300,6.351847412109375,-2.4666976928710938,3.6797523498535156,-4.123421669006348
1652389144839900200,6.361900146484375,-1.2111361026763916,4.341953277587891,-3.6238083839416504
1652389144849950500,6.371950439453125,-0.2280181646347046,3.711091995239258,-3.3544249534606934
1652389144859998000,6.381998046875,0.3005713224411011,2.3369340896606445,-3.259735107421875
1652389144870043100,6.392043212890625,0.3903721570968628,2.354511260986328,-3.2308707237243652
1652389144880086000,6.4020859375,0.8929314613342285,0.8192062377929688,-2.6145224571228027
1652389144890127000,6.412127197265625,1.054031491279602,-0.7914581298828125,-1.5825066566467285
1652389144900166400,6.42216650390625,0.8532969951629639,-1.6138505935668945,-0.8501585125923157
1652389144910204000,6.432203857421875,0.1586465835571289,-1.9342985153198242,-0.6531907916069031
1652389144920239900,6.442239990234375,-0.8864870071411133,-2.076547622680664,-0.42551445960998535
1652389144930274600,6.452274658203125,-2.4445619583129883,-1.8976936340332031,-1.1296299695968628
1652389144940307700,6.4623076171875,-2.816253423690796,-1.4264116287231445,-1.9030053615570068
1652389144950339800,6.47233984375,-2.018009662628174,-0.8704261779785156,-2.00649356842041
1652389144960370700,6.48237060546875,-0.32931289076805115,0.027898788452148438,-1.6243236064910889
1652389144970401500,6.492401611328125,1.1440393924713135,1.2902393341064453,-1.4735417366027832
1652389144980432400,6.502432373046875,2.1355161666870117,2.4897055625915527,-1.154341220855713
1652389144990463200,6.512463134765625,2.5189530849456787,3.4024624824523926,-0.7614781856536865
1652389145000460800,6.522460693359375,2.2313477993011475,3.581671714782715,0.01459956169128418
1652389145010458400,6.532458251953125,1.7605769634246826,3.5023865699768066,0.45576614141464233
1652389145020456000,6.5424560546875,0.9247910380363464,3.3866453170776367,0.6390565037727356
1652389145030453500,6.55245361328125,-0.07005947828292847,3.045098304748535,0.9444336891174316
1652389145040451000,6.562451171875,-0.5376467704772949,2.5485634803771973,1.2295951843261719
1652389145050448600,6.57244873046875,-0.7963226437568665,1.2100296020507812,1.5191104412078857
1652389145060446200,6.5824462890625,0.012801527976989746,0.4407958984375,1.6965283155441284
1652389145070443800,6.59244384765625,0.8274679183959961,-0.3739891052246094,1.6399929523468018
1652389145080441300,6.60244140625,1.5591565370559692,-0.9966268539428711,1.3604004383087158
1652389145090439000,6.61243896484375,1.4137015342712402,-0.8990678787231445,0.7213523387908936
1652389145100436500,6.6224365234375,2.209968328475952,-0.6464509963989258,0.6945875287055969
1652389145110434000,6.63243408203125,1.4165235757827759,-0.11785888671875,0.2713735103607178
1652389145120431600,6.642431640625,1.0511507987976074,0.4388608932495117,0.2858552932739258
1652389145130429200,6.65242919921875,0.8049675822257996,0.9115314483642578,0.4024496078491211
1652389145140426800,6.6624267578125,0.877447783946991,1.182485580444336,0.6641405820846558
1652389145150424000,6.672424072265625,0.8633514642715454,1.538722038269043,0.4186471700668335
1652389145160421600,6.682421630859375,1.3930491209030151,1.5899791717529297,0.4515960216522217
1652389145170419200,6.692419189453125,1.9181430339813232,1.4276714324951172,0.2765299081802368
1652389145180416800,6.702416748046875,2.6928343772888184,0.9083881378173828,-0.07152044773101807
1652389145190414300,6.712414306640625,2.201589584350586,0.04954051971435547,-0.19892549514770508
1652389145200412000,6.722411865234375,3.61295223236084,-0.8059635162353516,-0.00787353515625
1652389145210409500,6.732409423828125,4.3200554847717285,-1.7151260375976562,0.7272781133651733
1652389145220407000,6.742406982421875,3.7802374362945557,-2.1346435546875,0.4647291898727417
1652389145230404600,6.752404541015625,3.7517452239990234,-2.1361398696899414,0.4421147108078003
1652389145240402200,6.762402099609375,3.6137633323669434,-2.5096445083618164,0.6187560558319092
1652389145250399700,6.772399658203125,3.3077635765075684,-2.3144359588623047,0.3049194812774658
1652389145260397300,6.782397216796875,2.7759575843811035,-2.0583715438842773,0.24125587940216064
1652389145270395000,6.792394775390625,2.303035259246826,-1.51214599609375,0.6697521209716797
1652389145280392400,6.802392333984375,1.708113670349121,-0.9324665069580078,1.3647207021713257
1652389145290390000,6.81239013671875,1.1830246448516846,-0.484222412109375,1.913468837738037
1652389145300387600,6.8223876953125,0.24711696803569794,-0.09737300872802734,2.440399169921875
1652389145310385000,6.832385009765625,-0.5297486186027527,0.08229351043701172,2.8719124794006348
1652389145320382500,6.842382568359375,-1.6945171356201172,0.8181476593017578,2.8687033653259277
1652389145330380000,6.852380126953125,-2.548957586288452,2.101133346557617,2.6306533813476562
1652389145340377600,6.862377685546875,-2.7149064540863037,2.1017045974731445,2.6652956008911133
1652389145350375200,6.872375244140625,-2.5780725479125977,3.6533522605895996,0.5763216018676758
1652389145360372700,6.882372802734375,-2.0622811317443848,3.2678475379943848,0.04104161262512207
1652389145370370300,6.892370361328125,-2.2379133701324463,3.2545599937438965,0.0429152250289917
1652389145380368000,6.902367919921875,-1.7552952766418457,2.152371883392334,0.18709588050842285
1652389145390365400,6.912365478515625,-1.7669652700424194,0.4264087677001953,0.6032513380050659
1652389145400363000,6.922363037109375,-2.5125956535339355,-4.330466270446777,0.5931267738342285
1652389145410360600,6.932360595703125,-2.4530365467071533,-7.260515213012695,0.7255438566207886
1652389145420358100,6.942358154296875,-2.680156946182251,-9.009570121765137,0.7943793535232544
1652389145430355700,6.952355712890625,-3.613341808319092,-8.1380033493042,0.7578778266906738
1652389145440353300,6.962353271484375,-4.722182273864746,-5.207371711730957,0.47564077377319336
1652389145450350800,6.972350830078125,-4.8641157150268555,-1.7224178314208984,0.17054486274719238
1652389145460348400,6.982348388671875,-4.499648094177246,0.6535224914550781,-0.02954995632171631
1652389145470346000,6.992345947265625,-2.9827685356140137,2.265036106109619,-0.12235677242279053
1652389145480343600,7.002343505859375,-1.2070738077163696,3.5184202194213867,-0.10537064075469971
1652389145490341000,7.012341064453125,0.11170244216918945,4.183138847351074,-0.0760352611541748
1652389145500338700,7.022338623046875,0.22114169597625732,4.193568229675293,-0.10665488243103027
1652389145510336300,7.032336181640625,1.3246705532073975,4.455855369567871,-0.05487990379333496
1652389145520333800,7.042333740234375,2.6265556812286377,4.231899261474609,0.234596848487854
1652389145530331400,7.052331298828125,2.833801507949829,3.686526298522949,0.1728503704071045
1652389145540295400,7.06229541015625,1.7888914346694946,2.9664926528930664,-0.1572185754776001
1652389145550259700,7.072259765625,0.6585596799850464,2.5006394386291504,-0.4197336435317993
1652389145560224000,7.08222412109375,0.03915059566497803,2.121951103210449,-0.7647597789764404
1652389145570188300,7.092188232421875,-0.7788139581680298,1.656177043914795,-0.8786910176277161
1652389145580152600,7.102152587890625,-2.0876712799072266,0.7440910339355469,-0.8485438823699951
1652389145590116600,7.11211669921875,-2.1410470008850098,0.7331972122192383,-0.857286810874939
1652389145600081000,7.122080810546875,-2.5297651290893555,0.5754833221435547,-0.6920444965362549
1652389145610045200,7.132045166015625,-2.0296730995178223,0.9185934066772461,-0.5986959934234619
1652389145620009500,7.142009521484375,-2.0145821571350098,0.9237785339355469,-0.5841606855392456
1652389145629973800,7.151973876953125,-1.290270209312439,0.8793268203735352,-0.39385056495666504
1652389145639937800,7.161937744140625,0.1458449363708496,0.7617254257202148,-0.21325302124023438
1652389145649902000,7.171902099609375,1.071191430091858,0.5030136108398438,0.03543412685394287
1652389145659866400,7.181866455078125,1.771124005317688,0.31477928161621094,0.5003036260604858
1652389145669830700,7.19183056640625,1.8023464679718018,0.32645511627197266,0.5430881977081299
1652389145679794700,7.201794677734375,1.914263129234314,0.2668485641479492,0.7727295160293579
1652389145689759000,7.211759033203125,1.9985380172729492,0.38340187072753906,1.2683942317962646
1652389145699723300,7.22172314453125,2.443953275680542,0.6042995452880859,1.8719959259033203
1652389145709687600,7.2316875,2.950941324234009,0.5077390670776367,2.408440589904785
1652389145719651800,7.24165185546875,3.3901867866516113,0.07598495483398438,2.598397731781006
1652389145729616000,7.251615966796875,3.4482078552246094,-0.677180290222168,2.4277114868164062
1652389145739580200,7.261580078125,3.3707480430603027,-0.6979436874389648,2.373271942138672
1652389145749544400,7.27154443359375,2.8724403381347656,-0.8112277984619141,1.9095350503921509
1652389145759508700,7.2815087890625,2.196051836013794,-0.8616676330566406,1.5840437412261963
1652389145769472800,7.29147265625,1.8185834884643555,-0.7067155838012695,1.3478988409042358
1652389145779437000,7.30143701171875,1.3262200355529785,-0.15717029571533203,1.0357993841171265
1652389145789401300,7.3114013671875,0.4797990322113037,-0.7143936157226562,0.8713074922561646
1652389145799365600,7.32136572265625,-1.0372904539108276,-1.936751365661621,0.12353217601776123
1652389145809330000,7.331329833984375,-2.8558454513549805,-5.109723091125488,-0.9527533054351807
1652389145819294000,7.3412939453125,-2.9307100772857666,-9.226805686950684,-0.9303178787231445
1652389145829258200,7.35125830078125,-3.5393319129943848,-11.743794441223145,-0.6670026779174805
1652389145839255800,7.361255859375,-5.468839645385742,-10.489691734313965,-2.8677659034729004
1652389145849253400,7.37125341796875,-5.867274761199951,-6.042835235595703,-6.199014663696289
1652389145859251000,7.3812509765625,-4.99464225769043,-0.935399055480957,-7.424084663391113
1652389145869248500,7.39124853515625,-4.210302829742432,2.4191317558288574,-6.750576019287109
1652389145879246000,7.40124609375,-2.6140031814575195,3.8841605186462402,-4.837024211883545
1652389145889243600,7.41124365234375,-1.1182847023010254,4.29580020904541,-4.1522369384765625
1652389145899241200,7.4212412109375,-1.0043482780456543,4.309386253356934,-4.177700996398926
1652389145909238800,7.43123876953125,-0.09482479095458984,3.8609771728515625,-3.949336528778076
1652389145919236400,7.441236328125,0.3900284767150879,2.257782459259033,-3.384721279144287
1652389145929234000,7.45123388671875,0.7040231227874756,0.7164926528930664,-2.6016645431518555
1652389145939231500,7.4612314453125,0.8120319843292236,-0.7436504364013672,-1.6007355451583862
1652389145949229000,7.47122900390625,0.6239702701568604,-1.7324399948120117,-0.8154150247573853
1652389145959226600,7.4812265625,0.14918935298919678,-2.026015281677246,-0.10249781608581543
1652389145969224200,7.49122412109375,-0.8842700123786926,-2.0421714782714844,0.08106780052185059
1652389145979221800,7.5012216796875,-2.349179744720459,-1.7797279357910156,-0.6844011545181274
1652389145989219300,7.51121923828125,-2.396674871444702,-0.48595237731933594,-2.157945394515991
1652389145999217000,7.521216796875,-1.1503949165344238,0.42766380310058594,-2.0695443153381348
1652389146009214500,7.53121435546875,0.40574413537979126,1.7895922660827637,-1.8915317058563232
1652389146019212000,7.5412119140625,1.4160594940185547,2.989530563354492,-1.8637630939483643
1652389146029209600,7.551209716796875,1.4684778451919556,2.9997177124023438,-1.807326078414917
1652389146039207200,7.561207275390625,1.989020586013794,3.6646275520324707,-1.3441357612609863
1652389146049204700,7.571204833984375,1.8796632289886475,3.900238513946533,-0.7640600800514221
1652389146059202300,7.581202392578125,0.9006786942481995,3.560429573059082,0.06131899356842041
1652389146069200000,7.591199951171875,0.47032392024993896,3.054680824279785,0.4425145387649536
1652389146079197200,7.601197265625,-0.08057814836502075,2.310609817504883,0.7862352132797241
1652389146089194800,7.61119482421875,-0.18300390243530273,1.5638914108276367,1.226514220237732
1652389146099192300,7.6211923828125,-0.2063937485218048,0.7664985656738281,1.440437912940979
1652389146109190000,7.63118994140625,0.2782781720161438,-0.03966808319091797,1.6369248628616333
1652389146119187500,7.6411875,0.33322474360466003,-0.6383428573608398,1.4810268878936768
1652389146129185000,7.65118505859375,0.5722805261611938,-1.1406631469726562,1.352831482887268
1652389146139182600,7.6611826171875,1.0624266862869263,-1.305281639099121,1.1811554431915283
1652389146149180200,7.67118017578125,0.7706339955329895,-0.7755098342895508,0.36899709701538086
1652389146159177700,7.681177734375,0.883520781993866,-0.4101428985595703,0.1157534122467041
1652389146169175300,7.69117529296875,0.9163048267364502,0.0120849609375,0.20459342002868652
1652389146179172900,7.7011728515625,0.6057314872741699,0.5655899047851562,0.04066157341003418
1652389146189170400,7.71117041015625,0.8510212898254395,0.94158935546875,0.2925090789794922
1652389146199168000,7.72116796875,0.84956955909729,1.3359413146972656,0.22839069366455078
1652389146209165600,7.73116552734375,1.5098905563354492,1.583404541015625,0.25861024856567383
1652389146219163100,7.7411630859375,1.9921154975891113,1.6557626724243164,0.19116342067718506
1652389146229160700,7.75116064453125,2.722151279449463,1.4865264892578125,0.11831855773925781
1652389146239158300,7.761158203125,2.9157180786132812,1.0236539840698242,-0.0922166109085083
1652389146249155800,7.77115576171875,4.1513895988464355,0.38474082946777344,0.3317371606826782
1652389146259153400,7.7811533203125,4.135383129119873,0.3815793991088867,0.2989555597305298
1652389146269151000,7.79115087890625,3.676936388015747,-0.3436298370361328,0.21454250812530518
1652389146279148500,7.8011484375,3.9148166179656982,-1.1681499481201172,0.5199848413467407
1652389146289146000,7.81114599609375,3.584616184234619,-1.9987545013427734,0.5366989374160767
1652389146299143700,7.821143798828125,3.677452802658081,-2.560246467590332,0.6548213958740234
1652389146309174500,7.831174560546875,3.728635311126709,-2.666179656982422,0.7260195016860962
1652389146319205400,7.841205322265625,3.266502857208252,-2.294839859008789,0.7465885877609253
1652389146329236200,7.851236328125,2.6459219455718994,-1.6407670974731445,1.0890079736709595
1652389146339267000,7.86126708984375,2.1276187896728516,-1.213913917541504,1.5766844749450684
1652389146349298000,7.8712978515625,1.5704948902130127,-0.9062528610229492,1.919202446937561
1652389146359329000,7.8813291015625,0.8231208920478821,-0.7461233139038086,2.3087642192840576
1652389146369360000,7.89135986328125,-0.12485497444868088,-0.8774824142456055,2.7338058948516846
1652389146379390700,7.901390625,-1.6379237174987793,-0.6960420608520508,2.6518945693969727
1652389146389421600,7.911421630859375,-3.5136523246765137,1.5868301391601562,1.4350297451019287
1652389146399452400,7.921452392578125,-3.7350711822509766,2.7199697494506836,0.1701953411102295
1652389146409483300,7.931483154296875,-3.2060117721557617,3.26608943939209,-0.6205365061759949
1652389146419514000,7.94151416015625,-2.125114679336548,3.034839153289795,-0.5702077746391296
1652389146429545200,7.951545166015625,-1.6542599201202393,2.0829896926879883,0.14620506763458252
1652389146439576000,7.961576171875,-1.9376022815704346,0.6390371322631836,0.7292900085449219
1652389146449607000,7.97160693359375,-2.0669233798980713,0.6215553283691406,0.7251584529876709
1652389146459637800,7.9816376953125,-1.8666590452194214,-2.2515687942504883,1.1422278881072998
1652389146469668600,7.991668701171875,-1.4490671157836914,-4.728177070617676,1.3441174030303955
1652389146479699500,8.001699462890626,-1.422361135482788,-6.8136091232299805,1.7047803401947021
1652389146489730300,8.011730224609375,-2.625617265701294,-7.421802520751953,2.0228238105773926
1652389146499761200,8.02176123046875,-3.974175453186035,-5.903454780578613,1.9189081192016602
1652389146509792300,8.031792236328124,-4.841797828674316,-3.4936094284057617,1.6176633834838867
1652389146519823000,8.041822998046875,-4.5282063484191895,-0.9314441680908203,1.2135076522827148
1652389146529854000,8.05185400390625,-3.280626058578491,0.570063591003418,1.0328201055526733
1652389146539884800,8.061884765625,-0.1730639934539795,3.4796481132507324,0.5240135192871094
1652389146549915600,8.07191552734375,1.1828994750976562,4.379598617553711,0.1329437494277954
1652389146559946500,8.081946533203125,2.3888039588928223,4.471066474914551,0.16538894176483154
1652389146569977300,8.091977294921875,2.802504777908325,3.8765525817871094,0.16534698009490967
1652389146580008400,8.102008544921874,1.575507640838623,2.8580236434936523,-0.19351696968078613
1652389146590039300,8.112039306640625,1.5303398370742798,2.8442840576171875,-0.23592400550842285
1652389146600103400,8.122103515625,0.7832695245742798,2.384230136871338,-0.5701617002487183
1652389146610134300,8.13213427734375,-0.13664209842681885,1.9221906661987305,-0.9900892972946167
1652389146620165000,8.1421650390625,-0.8156971335411072,1.2792739868164062,-1.2697913646697998
1652389146630196000,8.152196044921874,-1.2819732427597046,0.5418329238891602,-1.4809939861297607
1652389146640226800,8.162226806640625,-1.464034080505371,-0.0148773193359375,-1.5202217102050781
1652389146650258000,8.1722578125,-1.4054644107818604,-0.1339244842529297,-1.2512707710266113
1652389146660288800,8.182288818359375,-1.1671866178512573,0.30130577087402344,-0.9171648621559143
1652389146670319600,8.192319580078125,-0.8575839996337891,0.7839250564575195,-0.5398250818252563
1652389146680350500,8.2023505859375,-0.8307898044586182,0.7957267761230469,-0.5030571222305298
1652389146690381300,8.21238134765625,-0.22653722763061523,1.3343400955200195,-0.4156968593597412
1652389146700412200,8.222412109375,0.4333817958831787,1.4246749877929688,-0.10576021671295166
1652389146710443000,8.232443115234375,0.8393634557723999,1.6019024848937988,0.1562291383743286
1652389146720507400,8.24250732421875,0.9928684234619141,1.6139955520629883,0.4157172441482544
1652389146730571500,8.252571533203126,0.9332669973373413,1.2083978652954102,0.7175467014312744
1652389146740635600,8.2626357421875,1.143264651298523,0.8220787048339844,1.042301058769226
1652389146750700000,8.272699951171875,1.6389069557189941,0.6020088195800781,1.4541776180267334
1652389146760764200,8.28276416015625,2.231564998626709,0.1799936294555664,2.053121566772461
1652389146770828300,8.292828369140626,3.3963847160339355,-1.0113525390625,2.8189520835876465
1652389146780892700,8.302892578125,3.6749892234802246,-0.7517423629760742,2.712245464324951
1652389146790956800,8.312956787109375,3.6860575675964355,-0.7682895660400391,2.6982436180114746
1652389146801021000,8.32302099609375,2.9594011306762695,-1.0498342514038086,2.5215423107147217
1652389146811085300,8.333085205078126,2.2539539337158203,-1.1297321319580078,2.2253336906433105
1652389146821149400,8.3431494140625,1.7884923219680786,-0.9346551895141602,1.959774374961853
1652389146831213600,8.353213623046875,0.9342947006225586,-0.5982589721679688,1.878143310546875
1652389146841278000,8.36327783203125,0.04184365272521973,-0.9607009887695312,1.5958021879196167
1652389146851342000,8.373342041015626,-1.5714679956436157,-2.205442428588867,0.8609228134155273
1652389146861406200,8.38340625,-2.830355167388916,-5.095674514770508,0.08758354187011719
1652389146871470300,8.39347021484375,-2.434086322784424,-8.235365867614746,-0.023490190505981445
1652389146881534700,8.40353466796875,-2.613809585571289,-9.755638122558594,-0.623953104019165
1652389146891598800,8.413598876953126,-4.517442226409912,-8.550041198730469,-2.966221332550049
1652389146901629700,8.423629638671875,-5.944108963012695,-5.198144912719727,-5.939699649810791
1652389146911660500,8.43366064453125,-5.399909019470215,-1.6208677291870117,-7.554643630981445
1652389146921691400,8.44369140625,-4.310022354125977,1.1777915954589844,-7.337899208068848
1652389146931722500,8.453722412109375,-2.788546085357666,2.5706682205200195,-5.401202201843262
1652389146941753300,8.46375341796875,-1.4642486572265625,3.418416976928711,-4.850536823272705
1652389146951784200,8.4737841796875,-0.6358983516693115,3.7648673057556152,-4.800167083740234
1652389146961815000,8.48381494140625,0.1920926570892334,3.238144874572754,-4.268190383911133
1652389146971846000,8.493845947265624,0.6724221706390381,2.1281075477600098,-3.505727767944336
1652389146981876700,8.503876708984375,1.0961319208145142,0.6553678512573242,-2.3635458946228027
1652389146991907600,8.513907470703124,1.1177949905395508,-0.5093069076538086,-1.4043442010879517
1652389147001938400,8.5239384765625,0.6741965413093567,-1.2567024230957031,-0.5322831869125366
1652389147011969500,8.533969482421876,0.05450683832168579,-1.561934471130371,-0.16874194145202637
1652389147021967000,8.543967041015625,0.07556277513504028,-1.5435991287231445,-0.07781589031219482
1652389147031964400,8.55396435546875,-0.8883180618286133,-1.7015256881713867,-0.11654806137084961
1652389147041962000,8.5639619140625,-1.5737322568893433,-1.208043098449707,-1.2758628129959106
1652389147051959600,8.57395947265625,-0.923861563205719,-0.7649812698364258,-1.2169359922409058
1652389147061957000,8.58395703125,0.26370441913604736,0.30782032012939453,-1.1793537139892578
1652389147071954700,8.59395458984375,1.3327298164367676,1.4821557998657227,-0.9342584609985352
1652389147081952300,8.6039521484375,1.9710270166397095,2.6545677185058594,-0.5567528605461121
1652389147091949800,8.61394970703125,1.7616102695465088,3.301008701324463,-0.14491546154022217
1652389147101947400,8.623947509765625,0.9981206655502319,3.5394577980041504,0.3270033597946167
1652389147111945000,8.633945068359376,0.13040435314178467,3.4354424476623535,0.5524617433547974
1652389147121942500,8.643942626953125,-0.6488184332847595,3.064601421356201,0.6715059280395508
1652389147131940000,8.653940185546874,-1.0211514234542847,2.3809361457824707,0.9716601371765137
1652389147141937700,8.663937744140625,-0.954439640045166,1.7858471870422363,1.2252734899520874
1652389147151935200,8.673935302734375,-0.6746261715888977,1.1694717407226562,1.31995689868927
1652389147161932800,8.683932861328126,-0.10707145929336548,0.42313385009765625,1.4635175466537476
1652389147171930400,8.693930419921875,0.4904230833053589,-0.20579814910888672,1.4174401760101318
1652389147181928000,8.703927978515624,0.6379347443580627,-0.20188045501708984,1.407991647720337
1652389147191925500,8.713925537109375,1.1839922666549683,-0.7109994888305664,1.2196195125579834
1652389147201923000,8.723923095703125,1.9458404779434204,-1.0434675216674805,1.3733386993408203
1652389147211920600,8.733920654296876,1.476902961730957,-0.5419588088989258,0.4159715175628662
1652389147221918200,8.743918212890625,1.0602588653564453,0.2538127899169922,0.07239890098571777
1652389147231915800,8.753915771484374,1.1207658052444458,0.2501516342163086,0.05352342128753662
1652389147241913300,8.763913330078125,0.7422494888305664,0.684626579284668,0.04836416244506836
1652389147251911000,8.773910888671875,0.8060715794563293,0.8673486709594727,0.22034120559692383
1652389147261908500,8.783908447265626,1.1020221710205078,1.0565919876098633,0.3184514045715332
1652389147271906000,8.793906005859375,1.0296909809112549,1.1351871490478516,0.023939132690429688
1652389147281903600,8.803903564453124,2.717080593109131,0.6461906433105469,0.37955009937286377
1652389147291901200,8.813901123046875,2.9720072746276855,0.3034343719482422,0.26094579696655273
1652389147301898500,8.8238984375,4.199880123138428,-0.23062419891357422,0.7236919403076172
1652389147311896000,8.83389599609375,4.139982223510742,-0.565220832824707,0.9206753969192505
1652389147321893600,8.8438935546875,4.131235122680664,-0.8343715667724609,1.2604931592941284
1652389147331891200,8.85389111328125,3.4658851623535156,-1.1218757629394531,1.2119736671447754
1652389147341888800,8.863888671875,3.4942476749420166,-1.5664501190185547,1.302223563194275
1652389147351886300,8.87388623046875,3.0318779945373535,-1.6820716857910156,1.031293272972107
1652389147361884000,8.8838837890625,2.683157444000244,-1.5886335372924805,0.7610318660736084
1652389147371881500,8.893881591796875,2.374776840209961,-1.2453699111938477,0.3231966495513916
1652389147381879000,8.903879150390624,1.7564418315887451,-0.7842512130737305,0.1860346794128418
1652389147391876600,8.913876708984375,1.451194167137146,-0.3277130126953125,0.3175595998764038
1652389147401874200,8.923874267578125,1.3972259759902954,-0.32602596282958984,0.3187100887298584
1652389147411871700,8.933871826171876,1.2002639770507812,0.06128120422363281,0.41384804248809814
1652389147421869300,8.943869384765625,0.7183399200439453,0.3867940902709961,0.33235108852386475
1652389147431867000,8.953866943359374,0.01313772052526474,0.4975881576538086,0.6128960847854614
1652389147441864400,8.963864501953125,-1.0697954893112183,0.632573127746582,1.2820616960525513
1652389147451862000,8.973862060546875,-2.1463513374328613,1.347808837890625,1.8077188730239868
1652389147461859600,8.983859619140626,-2.750040292739868,2.0841336250305176,1.869944453239441
1652389147471857200,8.993857177734375,-3.013542413711548,2.5254340171813965,-0.07157516479492188
1652389147481854700,9.003854736328124,-2.3744921684265137,1.589198112487793,0.044364333152770996
1652389147491852300,9.013852294921875,-2.009284734725952,-0.1177206039428711,0.8116811513900757
1652389147501849900,9.023849853515625,-2.3334765434265137,-2.8635244369506836,1.2975550889968872
1652389147511847400,9.033847412109376,-2.3685765266418457,-5.105985641479492,1.1966978311538696
1652389147521845000,9.043844970703125,-2.2185869216918945,-7.288949966430664,1.7736657857894897
1652389147531842600,9.053842529296874,-2.9087157249450684,-8.058218955993652,1.9021124839782715
1652389147541840100,9.063840087890625,-3.9705119132995605,-6.578246116638184,1.7833845615386963
1652389147551837400,9.07383740234375,-4.863052845001221,-4.078906059265137,1.5617616176605225
1652389147561868500,9.08386865234375,-5.058760643005371,-1.4170513153076172,1.1333200931549072
1652389147571899400,9.0938994140625,-5.010581970214844,-1.4152450561523438,1.0789659023284912
1652389147581930200,9.10393017578125,-3.667402505874634,0.5870742797851562,1.028120517730713
1652389147591961000,9.113961181640626,-1.9197940826416016,1.8711929321289062,0.814082145690918
1652389147601992000,9.123991943359375,-0.2419215440750122,2.779505729675293,0.635224461555481
1652389147612022800,9.134022705078126,1.1717252731323242,3.4948740005493164,0.31817102432250977
1652389147622053600,9.1440537109375,1.9972686767578125,3.6917710304260254,0.26538705825805664
1652389147632084700,9.154084716796875,2.3183045387268066,3.59696102142334,0.09004807472229004
1652389147642115600,9.164115478515624,1.3488132953643799,2.494260787963867,-0.18176007270812988
1652389147652146400,9.174146484375,0.5871976613998413,2.1005301475524902,-0.6785624623298645
1652389147662177300,9.18417724609375,-0.008540749549865723,1.6520652770996094,-1.1950476169586182
1652389147672208100,9.1942080078125,-0.6231916546821594,0.9481029510498047,-1.6302658319473267
1652389147682239000,9.204239013671875,-1.0694490671157837,0.39554595947265625,-1.8951770067214966
1652389147692269800,9.214269775390624,-1.3674970865249634,0.06838607788085938,-1.9563950300216675
1652389147702300700,9.22430078125,-1.5842704772949219,0.041420936584472656,-1.80056631565094
1652389147712331500,9.23433154296875,-1.6618037223815918,0.26523399353027344,-1.4973949193954468
1652389147722362600,9.244362548828125,-1.028951644897461,0.7181539535522461,-0.8034108281135559
1652389147732393500,9.2543935546875,-1.3080860376358032,0.9534521102905273,-0.8450432419776917
1652389147742424300,9.26442431640625,-0.8691127300262451,1.1503772735595703,-0.6456719636917114
1652389147752455200,9.274455078125,0.622983455657959,1.238809585571289,-0.12365400791168213
1652389147762519600,9.28451953125,0.869670033454895,1.4416980743408203,0.2075718641281128
1652389147772583700,9.294583740234375,1.116746187210083,1.604438304901123,0.5750672817230225
1652389147782647800,9.304647705078125,1.456367015838623,1.3982582092285156,0.9208997488021851
1652389147792712200,9.314712158203125,1.723471999168396,0.9965009689331055,1.2781175374984741
1652389147802776300,9.3247763671875,1.7709031105041504,1.0100488662719727,1.3259347677230835
1652389147812840400,9.33484033203125,2.0039401054382324,0.6473302841186523,1.6584974527359009
1652389147822904800,9.34490478515625,2.249101400375366,0.18483257293701172,2.121588706970215
1652389147832969000,9.354968994140625,2.5845766067504883,-0.4210777282714844,2.3137943744659424
1652389147843033000,9.365033203125,2.9829373359680176,-0.8806934356689453,2.243166923522949
1652389147853097500,9.375097412109374,3.120393753051758,-0.9161434173583984,1.9402756690979004
1652389147863128300,9.38512841796875,2.969910144805908,-0.878178596496582,1.661470890045166
1652389147873159200,9.3951591796875,2.137333393096924,-1.2652702331542969,1.78904128074646
1652389147883190000,9.40518994140625,1.843262791633606,-1.2462434768676758,1.9559019804000854
1652389147893220900,9.415220947265626,1.748387336730957,-1.2722644805908203,1.908907413482666
1652389147903252000,9.425251953125,1.2276383638381958,-1.3162565231323242,2.606179714202881
1652389147913282800,9.43528271484375,-0.2663928270339966,-2.511305809020996,2.0100579261779785
1652389147923313700,9.445313720703124,-0.2545205354690552,-2.514169692993164,1.9817211627960205
1652389147933344500,9.455344482421875,-2.106609582901001,-6.675673484802246,0.8248764276504517
1652389147943375400,9.465375244140626,-1.8465962409973145,-7.996437072753906,0.06720519065856934
1652389147953406200,9.47540625,-1.8129374980926514,-7.99290657043457,0.051703572273254395
1652389147963437000,9.48543701171875,-3.0250000953674316,-6.979490280151367,-1.3713657855987549
1652389147973468200,9.49546826171875,-4.714331150054932,-4.701885223388672,-3.49495267868042
1652389147983499000,9.5054990234375,-5.250328063964844,-1.787109375,-5.251673698425293
1652389147993529900,9.51552978515625,-4.4713287353515625,0.4787607192993164,-6.013448715209961
1652389148003560700,9.525560791015625,-3.4011905193328857,1.9412822723388672,-5.5106000900268555
1652389148013591600,9.535591552734376,-2.2754039764404297,2.5811424255371094,-4.513782501220703
1652389148023622400,9.545622314453125,-1.2942630052566528,2.8973422050476074,-4.07563591003418
1652389148033653200,9.5556533203125,-0.5428172945976257,2.857515811920166,-4.026978492736816
1652389148043684400,9.565684326171874,0.14386403560638428,2.383357524871826,-3.7583937644958496
1652389148053715200,9.575715087890625,0.8027613759040833,0.6412229537963867,-2.256488084793091
1652389148063712500,9.58571240234375,0.8574097752571106,0.6552896499633789,-2.213291645050049
1652389148073710000,9.5957099609375,0.010082006454467773,-1.1247339248657227,-0.9910620450973511
1652389148083707600,9.605707763671875,-0.6631926894187927,-1.4079694747924805,-1.0422430038452148
1652389148093705200,9.615705322265624,-1.3561851978302002,-1.497828483581543,-1.1477582454681396
1652389148103702800,9.625702880859375,-1.3179785013198853,-1.4795284271240234,-1.0626811981201172
1652389148113700400,9.635700439453124,-1.4449889659881592,-1.3661527633666992,-1.1953682899475098
1652389148123698000,9.645697998046876,-1.0599297285079956,-0.9922866821289062,-1.3959814310073853
1652389148133695500,9.655695556640625,-0.17847362160682678,-0.4845752716064453,-1.2734196186065674
1652389148143693000,9.665693115234374,0.8206873536109924,0.356964111328125,-1.1097790002822876
1652389148153690600,9.675690673828125,1.6198314428329468,1.5704517364501953,-0.9151586294174194
1652389148163688200,9.685688232421874,1.9026576280593872,2.531601905822754,-0.6486513614654541
1652389148173685800,9.695685791015626,1.8171812295913696,3.0567574501037598,-0.2169477939605713
1652389148183683300,9.705683349609375,1.4100315570831299,3.086599826812744,0.33871960639953613
1652389148193681000,9.715680908203124,-0.28225091099739075,2.83998441696167,0.550240159034729
1652389148203678500,9.725678466796875,-0.6936362981796265,2.388491630554199,0.7778066396713257
1652389148213676000,9.735676025390624,-0.7324850559234619,1.8049273490905762,1.0196137428283691
1652389148223673600,9.745673583984376,-0.5555752515792847,1.3451261520385742,1.0535064935684204
1652389148233671200,9.755671142578125,-0.17020559310913086,0.7015399932861328,1.1122158765792847
1652389148243668500,9.76566845703125,0.46536922454833984,-0.03833961486816406,1.218217372894287
1652389148253666000,9.775666015625,0.8838426470756531,-0.6745080947875977,1.2005501985549927
1652389148263663600,9.78566357421875,1.132750153541565,-0.9488153457641602,0.8424253463745117
1652389148273661200,9.7956611328125,1.241038203239441,-0.9496583938598633,0.8408811092376709
1652389148283658800,9.80565869140625,1.6311320066452026,-0.8559160232543945,0.5803741216659546
1652389148293656300,9.81565625,1.7914533615112305,-0.4848785400390625,0.40016841888427734
1652389148303654000,9.82565380859375,1.172634482383728,0.010786056518554688,0.06873202323913574
1652389148313651500,9.8356513671875,0.8636133074760437,0.32706451416015625,0.24044108390808105
1652389148323649000,9.84564892578125,0.702285647392273,0.669158935546875,0.39182043075561523
1652389148333646600,9.855646484375,0.7671058177947998,0.9095706939697266,0.5090523958206177
1652389148343644200,9.86564404296875,1.0830450057983398,1.1728944778442383,0.643869161605835
1652389148353641700,9.875641845703125,1.4545918703079224,1.3442535400390625,0.4858654737472534
1652389148363639300,9.885639404296874,1.8042845726013184,1.3667774200439453,0.3584190607070923
1652389148373636900,9.895636962890626,2.2868425846099854,1.0257062911987305,0.37128663063049316
1652389148383634400,9.905634521484375,4.00498104095459,0.5321836471557617,0.6678721904754639
1652389148393632000,9.915632080078124,3.446913719177246,0.04472160339355469,0.45137691497802734
1652389148403629600,9.925629638671875,4.097794532775879,-0.8316497802734375,0.7702208757400513
1652389148413627100,9.935627197265624,3.429769992828369,-1.2691822052001953,0.6215057373046875
1652389148423624700,9.945624755859376,3.3281972408294678,-1.6697845458984375,0.6475129127502441
1652389148433622300,9.955622314453125,3.01959490776062,-1.6649713516235352,0.29035890102386475
1652389148443619800,9.965619873046874,2.4736006259918213,-1.5877418518066406,0.500747799873352
1652389148453617400,9.975617431640625,1.8558902740478516,-1.3449926376342773,0.6813583374023438
1652389148463615000,9.985614990234374,1.3931828737258911,-1.3433504104614258,0.9667757749557495
1652389148473612500,9.995612548828126,1.1164244413375854,-1.428889274597168,1.236539602279663
1652389148483610000,10.005610107421875,0.6584408283233643,-1.4119300842285156,1.5393468141555786
1652389148493607400,10.015607421875,-0.5101861357688904,-1.1969661712646484,1.534630537033081
1652389148503605000,10.02560498046875,-2.0504186153411865,-0.6079473495483398,1.2304842472076416
1652389148513602600,10.0356025390625,-2.8474442958831787,0.5351753234863281,0.9647440910339355
1652389148523600100,10.04560009765625,-2.5930676460266113,1.4397296905517578,0.5295071601867676
1652389148533597700,10.05559765625,-2.4911537170410156,2.161355972290039,-0.21407830715179443
1652389148543595300,10.06559521484375,-2.354949951171875,2.571155548095703,-0.7496408820152283
1652389148553592800,10.0755927734375,-2.0357158184051514,2.357053279876709,-0.6071687936782837
1652389148563590400,10.08559033203125,-2.122063636779785,1.4536457061767578,0.03421163558959961
1652389148573588000,10.095587890625,-2.0808889865875244,-1.0663013458251953,0.8293646574020386
1652389148583585500,10.10558544921875,-1.4905647039413452,-3.8105173110961914,1.4809229373931885
1652389148593583000,10.1155830078125,-1.5761945247650146,-6.254966735839844,2.2547950744628906
1652389148603580700,10.12558056640625,-2.4125452041625977,-7.125696182250977,2.607844114303589
1652389148613578200,10.135578125,-2.4802262783050537,-7.1370744705200195,2.60275936126709
1652389148623575800,10.145575927734376,-4.19251823425293,-5.80499267578125,2.968252658843994
1652389148633573400,10.155573486328125,-5.310330867767334,-3.251826286315918,2.597914218902588
1652389148643604200,10.165604248046876,-5.315695762634277,-1.0811939239501953,2.0402579307556152
1652389148653635000,10.175635009765625,-2.1130926609039307,1.5217514038085938,1.1078859567642212
1652389148663666000,10.185666015625,-0.4290647506713867,2.6226515769958496,0.6107574701309204
1652389148673697000,10.195697021484374,0.6854987144470215,3.542377471923828,-0.18009328842163086
1652389148683728000,10.205727783203125,1.8832746744155884,4.036808013916016,-0.7554833292961121
1652389148693758700,10.2157587890625,2.8347904682159424,3.860154628753662,-0.8609730005264282
1652389148703789600,10.22578955078125,2.5172619819641113,3.1911845207214355,-1.1459635496139526
1652389148713820400,10.2358203125,1.4443166255950928,2.3467516899108887,-1.2577595710754395
1652389148723851300,10.245851318359374,-0.09626650810241699,1.720262050628662,-1.4136722087860107
1652389148733882000,10.255882080078125,-0.582827091217041,1.345041275024414,-1.3370565176010132
1652389148743913200,10.265913330078124,-1.2603492736816406,0.7976570129394531,-1.267051100730896
1652389148753944000,10.275944091796875,-1.9420486688613892,0.1454629898071289,-1.120305061340332
1652389148763975000,10.285974853515626,-1.9843478202819824,-0.31737613677978516,-0.6491993069648743
1652389148774005800,10.296005859375,-1.8126726150512695,-0.2672557830810547,-0.6492465138435364
1652389148784036600,10.30603662109375,-1.3951365947723389,-0.04742145538330078,-0.6912139058113098
1652389148794067500,10.3160673828125,-0.3524104356765747,0.33095836639404297,-0.507603645324707
1652389148804098600,10.3260986328125,0.47158145904541016,0.7150583267211914,-0.3004714250564575
1652389148814129400,10.33612939453125,0.3938610553741455,0.9627065658569336,-0.34241414070129395
1652389148824160300,10.34616015625,0.4051464796066284,0.9692754745483398,-0.3126792907714844
1652389149141568300,10.663568359375,0.9802531003952026,1.0396289825439453,-0.3593381643295288
1652389149151566300,10.67356640625,-2.7706563472747803,-2.2208499908447266,-3.0485358238220215
1652389149161564400,10.683564453125,-2.277139186859131,-1.7095165252685547,-2.965242624282837
1652389149171562000,10.69356201171875,-2.206777572631836,-1.6868085861206055,-2.877382755279541
1652389149181559800,10.703559814453126,-0.9793775081634521,-1.131474494934082,-2.3639583587646484
1652389149191557400,10.713557373046875,0.5211908221244812,-0.1311931610107422,-1.8558282852172852
1652389149201555000,10.723554931640624,1.7376844882965088,1.0963563919067383,-1.5243196487426758
1652389149211552500,10.733552490234375,2.5498785972595215,2.2159929275512695,-0.9808435440063477
1652389149221550300,10.74355029296875,2.3612146377563477,3.419895648956299,0.20069360733032227
1652389149231548000,10.7535478515625,1.6772830486297607,3.393399715423584,0.919014573097229
1652389149241545500,10.76354541015625,0.7555745244026184,3.237542152404785,1.216806411743164
1652389149251543000,10.77354296875,-0.24853450059890747,2.8196306228637695,1.5569062232971191
1652389149261540600,10.78354052734375,-1.1660908460617065,2.2109298706054688,1.698874592781067
1652389149271538200,10.7935380859375,-1.5656988620758057,1.5421562194824219,1.829872727394104
1652389149281535700,10.80353564453125,-1.6263630390167236,0.8566560745239258,1.84014093875885
1652389149291533300,10.813533203125,-1.3216116428375244,0.20658588409423828,1.5070191621780396
1652389149301531000,10.82353076171875,-0.8351795077323914,-0.45195960998535156,1.3001117706298828
1652389149311528400,10.833528564453125,-0.5255064964294434,-1.2469425201416016,0.9026355743408203
1652389149321526300,10.8435263671875,0.11933720111846924,-1.6237192153930664,0.49328112602233887
1652389149331523800,10.85352392578125,1.5877809524536133,-1.810399055480957,0.7700555324554443
1652389149341521400,10.863521484375,1.8146077394485474,-1.2737512588500977,0.4466371536254883
1652389149351519000,10.87351904296875,1.688181757926941,-0.2556610107421875,0.24355971813201904
1652389149361516500,10.8835166015625,1.6033828258514404,0.33947277069091797,0.524462103843689
1652389149371514000,10.89351416015625,1.119672179222107,0.7758550643920898,0.647435188293457
1652389149381511700,10.90351171875,1.1308423280715942,1.146937370300293,0.8175833225250244
1652389149391509200,10.91350927734375,0.8571761250495911,1.486236572265625,0.6837813854217529
1652389149401506800,10.9235068359375,1.4773563146591187,1.5758981704711914,1.1848522424697876
1652389149411504400,10.93350439453125,1.8562142848968506,1.856381893157959,1.040439248085022
1652389149421502000,10.943501953125,2.4771933555603027,1.817650318145752,0.9511162042617798
1652389149431499500,10.95349951171875,1.4690289497375488,1.3357477188110352,0.49830305576324463
1652389149441497000,10.9634970703125,3.17980694770813,0.5333414077758789,1.0717132091522217
1652389149451494700,10.97349462890625,4.202303409576416,-0.4746894836425781,1.5762228965759277
1652389149461492200,10.9834921875,3.2728681564331055,-1.1185779571533203,1.2525018453598022
1652389149471489800,10.99348974609375,3.2500393390655518,-1.1225929260253906,1.2201857566833496
1652389149481487400,11.0034873046875,2.9940547943115234,-1.8006534576416016,1.4305102825164795
1652389149491485000,11.01348486328125,2.2774810791015625,-1.4100866317749023,1.4959168434143066
1652389149501482500,11.023482421875,2.2508866786956787,-1.412205696105957,1.478103518486023
1652389149511480000,11.03347998046875,1.9967749118804932,-0.9718694686889648,1.2182115316390991
1652389149521477600,11.0434775390625,1.4956681728363037,-0.5416345596313477,0.5407463312149048
1652389149531475200,11.05347509765625,1.0169841051101685,-0.08823299407958984,0.3163468837738037
1652389149541472800,11.06347265625,0.8726816177368164,0.3597259521484375,0.2738339900970459
1652389149551470300,11.07347021484375,0.7291341423988342,0.6449832916259766,0.030628085136413574
1652389149561468000,11.083468017578125,0.3561091423034668,0.8310575485229492,-0.3755844831466675
1652389149571465200,11.09346533203125,-0.1362229734659195,0.7317533493041992,-0.020822882652282715
1652389149581462800,11.103462890625,-1.8308115005493164,1.758218765258789,1.3671579360961914
1652389149591460400,11.11346044921875,-2.4882237911224365,2.3844504356384277,0.9005495309829712
1652389149601458000,11.1234580078125,-2.8019607067108154,2.468851089477539,0.0014870166778564453
1652389149611455500,11.13345556640625,-2.2998297214508057,1.3128633499145508,-0.15601611137390137
1652389149621453000,11.143453125,-2.2518606185913086,-0.8447189331054688,0.49825525283813477
1652389149631450600,11.15345068359375,-2.456214189529419,-3.6699953079223633,1.2319464683532715
1652389149641448200,11.1634482421875,-2.7255403995513916,-6.115076065063477,1.367612600326538
1652389149651445800,11.17344580078125,-2.8634490966796875,-8.64118480682373,1.6753485202789307
1652389149661443300,11.183443359375,-3.7090682983398438,-9.941950798034668,2.3678550720214844
1652389149671441000,11.19344091796875,-5.060094833374023,-8.675907135009766,2.100158929824829
1652389149681438500,11.2034384765625,-5.955173492431641,-5.082465171813965,1.4982770681381226
1652389149691436000,11.21343603515625,-5.7882184982299805,-2.288689613342285,1.2052158117294312
1652389149701433600,11.22343359375,-4.444828033447266,-0.06201744079589844,0.9764630794525146
1652389149711431200,11.23343115234375,-2.4533634185791016,1.8829989433288574,0.7778266668319702
1652389149721428700,11.2434287109375,-0.645793080329895,3.5023436546325684,0.33383214473724365
1652389149731426300,11.25342626953125,0.7767705917358398,4.432682514190674,0.14910483360290527
1652389149741423900,11.263423828125,1.9643183946609497,4.9290666580200195,0.13745951652526855
1652389149751421400,11.27342138671875,2.3055431842803955,4.77363395690918,0.04048943519592285
1652389149761419000,11.2834189453125,1.6801198720932007,3.7988600730895996,-0.4103649854660034
1652389149771416600,11.29341650390625,1.1727458238601685,2.7006773948669434,-0.6675963401794434
1652389149781414100,11.3034140625,0.751410722732544,2.2379980087280273,-1.167191505432129
1652389149791411700,11.31341162109375,0.24071359634399414,1.8469691276550293,-1.6788244247436523
1652389149801409300,11.3234091796875,-0.23809659481048584,1.1959114074707031,-2.022155523300171
1652389149811406800,11.33340673828125,-0.6799266338348389,0.47271728515625,-2.2137792110443115
1652389149821404200,11.343404052734375,-1.082388997077942,-0.039862632751464844,-2.1777894496917725
1652389151080309500,12.6023095703125,1.5273106098175049,3.9392342567443848,0.7224305272102356
1652389151090306600,12.612306640625,-2.527134418487549,1.6942243576049805,-0.6221827864646912
1652389151100304100,12.62230419921875,-2.2963738441467285,0.3583526611328125,0.21188503503799438
1652389151110301400,12.632301513671875,-2.378314971923828,-1.6227226257324219,0.9510828256607056
1652389151120298800,12.642298828125,-1.9142900705337524,-4.413097381591797,1.2608253955841064
1652389151130296300,12.65229638671875,-1.6661102771759033,-6.431408882141113,1.5473588705062866
1652389151140294000,12.6622939453125,-2.214101552963257,-7.650609970092773,2.3031084537506104
1652389151150291500,12.67229150390625,-3.7068567276000977,-6.086540222167969,2.525430202484131
1652389151160288800,12.682288818359375,-4.316775321960449,-3.2744760513305664,2.4148991107940674
1652389151170286600,12.69228662109375,-4.530474662780762,-0.8916082382202148,1.9051225185394287
1652389151180284000,12.702283935546875,-3.7650680541992188,0.7216176986694336,1.645361065864563
1652389151190281500,12.712281494140624,-2.0061097145080566,1.8101096153259277,1.5122888088226318
1652389151200279000,12.722279052734375,-0.729340136051178,2.7167744636535645,1.1729360818862915
1652389151210276600,12.732276611328125,0.21902692317962646,3.635390281677246,0.6076382398605347
1652389151220274200,12.742274169921876,1.2966663837432861,4.25292444229126,-0.0056258440017700195
1652389151230271700,12.752271728515625,2.3651065826416016,4.3290863037109375,-0.2423168420791626
1652389151240269300,12.762269287109374,2.839197874069214,3.936171054840088,-0.5398561954498291
1652389151250267000,12.772266845703125,1.9075978994369507,3.0719189643859863,-0.9549691081047058
1652389151260264400,12.782264404296875,0.8116846084594727,2.4377245903015137,-1.205533504486084
1652389151270261800,12.79226171875,-0.18215429782867432,1.9032588005065918,-1.3006426095962524
1652389151280259300,12.80225927734375,-0.9249321222305298,1.3583784103393555,-1.3190381526947021
1652389151290257000,12.8122568359375,-1.605071783065796,0.5879240036010742,-1.0754766464233398
1652389151300254500,12.82225439453125,-1.4268697500228882,0.0711669921875,-0.5317826271057129
1652389151310295600,12.832295654296875,-2.2517619132995605,-0.4350404739379883,-0.32309508323669434
1652389151320334800,12.8423349609375,-2.2498881816864014,-0.43442630767822266,-0.32120442390441895
1652389151330372400,12.852372314453126,-1.5333898067474365,-0.4293336868286133,-0.10510742664337158
1652389151340408300,12.862408203125,0.19350767135620117,0.5503416061401367,0.05808889865875244
1652389151350442800,12.87244287109375,0.9976511001586914,1.1214942932128906,0.1883084774017334
1652389151360476200,12.88247607421875,1.2618448734283447,1.3194293975830078,0.3109527826309204
1652389151370508000,12.892508056640626,1.3861377239227295,1.578089714050293,0.542704701423645
1652389151380539000,12.902538818359375,1.390945315361023,1.8257942199707031,0.8670737743377686
1652389151390570000,12.912570068359376,1.3495707511901855,1.8897056579589844,1.0953044891357422
1652389151400600800,12.922600830078125,1.1740248203277588,1.766385555267334,1.1859947443008423
1652389151410631700,12.932631591796875,1.2775298357009888,1.5769262313842773,1.3309873342514038
1652389151420662500,12.94266259765625,1.8057599067687988,1.2148284912109375,1.5875244140625
1652389151430693400,12.952693359375,2.294736385345459,0.3195180892944336,1.8107914924621582
1652389151440724200,12.96272412109375,2.791491985321045,-0.6499671936035156,2.021806478500366
1652389151450755000,12.972755126953125,2.753216505050659,-0.6580171585083008,1.9966462850570679
1652389151460786200,12.9827861328125,3.0396041870117188,-1.0438880920410156,2.2233009338378906
1652389151470817000,12.992817138671874,3.14931058883667,-0.8043413162231445,2.012824535369873
1652389151480848000,13.002847900390625,2.6583609580993652,-0.845616340637207,1.9602025747299194
1652389151490878700,13.012878662109374,1.7132142782211304,-1.057774543762207,2.047243595123291
1652389151500909600,13.02290966796875,1.6202136278152466,-1.0829362869262695,1.991432547569275
1652389151510940400,13.0329404296875,0.63648521900177,-1.9643754959106445,1.9991345405578613
1652389151520971300,13.04297119140625,-1.3099079132080078,-4.151147842407227,1.3678702116012573
1652389151531002400,13.05300244140625,-2.509286403656006,-7.621513366699219,1.12745201587677
1652389151541033200,13.063033203125,-2.565363645553589,-11.22286319732666,1.250657081604004
1652389151551064000,13.07306396484375,-2.456587314605713,-11.196148872375488,0.03921854496002197
1652389151561095000,13.083094970703126,-4.3300395011901855,-2.159317970275879,-4.413565635681152
1652389151571125800,13.093125732421875,-3.996476173400879,1.2891855239868164,-4.449378490447998
1652389151581156600,13.103156494140626,-2.551928997039795,3.3979530334472656,-4.127063751220703
1652389151591187500,13.1131875,-1.1950348615646362,4.20346212387085,-3.8247108459472656
1652389151601218300,13.12321826171875,-0.5190262794494629,3.9486770629882812,-3.168962001800537
1652389151611216000,13.1332158203125,-0.320035457611084,3.6085329055786133,-2.9043407440185547
1652389151621213400,13.14321337890625,-0.2755066156387329,3.1079959869384766,-2.8655898571014404
1652389151631211000,13.1532109375,-0.3742918372154236,1.9689359664916992,-2.8737473487854004
1652389151641208600,13.16320849609375,-0.3718265891075134,0.5250043869018555,-3.167969226837158
1652389151651206100,13.1732060546875,-0.4910390377044678,-0.8453216552734375,-3.4133896827697754
1652389151661203700,13.18320361328125,-1.2997065782546997,-2.220123291015625,-3.2835443019866943
1652389151671201300,13.193201171875,-2.110642910003662,-3.0804710388183594,-2.4174952507019043
1652389151681198800,13.20319873046875,-2.875424861907959,-3.3964900970458984,-1.7699291706085205
1652389151691196400,13.213196533203124,-2.8858108520507812,-2.5885791778564453,-2.393710136413574
1652389151701194000,13.223194091796875,-1.8515641689300537,-1.971426010131836,-2.061460256576538
1652389151711191600,13.233191650390625,-0.47225797176361084,-1.093520164489746,-1.5740896463394165
1652389151721189000,13.243189208984376,0.9550677537918091,0.3621387481689453,-1.5544564723968506
1652389151731186700,13.253186767578125,2.416987180709839,1.9377961158752441,-1.0806446075439453
1652389151741184300,13.263184326171874,3.1775007247924805,2.9243226051330566,-0.4331895112991333
1652389151751181800,13.273181884765625,3.2051198482513428,2.93119478225708,-0.3866872787475586
1652389151761179400,13.283179443359375,3.1104507446289062,3.5601344108581543,0.1265401840209961
1652389151771177000,13.293177001953126,2.390017032623291,3.775167465209961,0.6319402456283569
1652389151781174500,13.303174560546875,1.613567590713501,3.5817928314208984,1.1490225791931152
1652389151791172000,13.313172119140624,-0.22263169288635254,3.1749424934387207,1.5985591411590576
1652389151801169700,13.323169677734375,-0.7696467638015747,2.697089195251465,1.7794110774993896
1652389151811167200,13.333167236328125,-1.0092942714691162,2.1343250274658203,1.784162998199463
1652389151821164800,13.343164794921876,-0.7270466089248657,1.421895980834961,1.8046255111694336
1652389151831162400,13.353162353515625,-0.3932754397392273,0.5567569732666016,1.5603690147399902
1652389151841160000,13.363159912109374,0.18820533156394958,-0.33004093170166016,1.3590881824493408
1652389151851157500,13.373157470703125,0.4513567388057709,-0.99249267578125,1.1339507102966309
1652389151861155000,13.383155029296875,0.7603051066398621,-1.2729682922363281,0.6983315944671631
1652389151871152600,13.393152587890626,1.5247914791107178,-1.2889347076416016,0.6409708857536316
1652389151881150200,13.403150146484375,1.5778135061264038,-0.7896308898925781,0.28744280338287354
1652389151891147800,13.413147705078124,1.5637363195419312,-0.16451168060302734,0.29455602169036865
1652389151901145300,13.423145263671875,1.5884127616882324,0.2352447509765625,0.605817437171936
1652389151911143000,13.433142822265625,1.6556850671768188,0.23238563537597656,0.5898245573043823
1652389151921140500,13.443140380859376,1.391899585723877,0.6860828399658203,0.4709266424179077
1652389151931138000,13.453137939453125,1.0283011198043823,0.9043560028076172,0.6422637701034546
1652389151941135400,13.46313525390625,0.9702309966087341,1.3752164840698242,0.466754674911499
1652389151951133000,13.4731328125,1.417336344718933,1.6080379486083984,0.6307344436645508
1652389151961130500,13.483130615234375,1.5905743837356567,1.6866493225097656,0.4070020914077759
1652389151971128000,13.493128173828126,2.8069190979003906,1.2646818161010742,0.6824964284896851
1652389151981125600,13.503125732421875,3.4351468086242676,-0.0786294937133789,0.7770140171051025
1652389151991123200,13.513123291015624,4.189530372619629,-0.7358694076538086,1.0283832550048828
1652389152001120800,13.523120849609375,3.3608758449554443,-1.0589008331298828,1.022253394126892
1652389152011118300,13.533118408203125,3.1784768104553223,-1.084782600402832,1.0249289274215698
1652389152021116000,13.543115966796876,3.2776899337768555,-0.9489316940307617,0.890861988067627
1652389152031113500,13.553113525390625,3.3117547035217285,-0.8360252380371094,0.49054527282714844
1652389152041111000,13.563111083984374,3.1501824855804443,-0.6671524047851562,0.18979883193969727
1652389152051108600,13.573108642578125,2.8269705772399902,-0.2847099304199219,0.2772560119628906
1652389152061106200,13.583106201171875,2.2419724464416504,-0.07476520538330078,0.3300718069076538
1652389152071103700,13.593103759765626,1.5332367420196533,-0.1904458999633789,0.5015708208084106
1652389152081101000,13.60310107421875,0.8357056379318237,-0.4494485855102539,0.9462095499038696
1652389152091098600,13.6130986328125,0.7013557553291321,-0.4471445083618164,0.9716237783432007
1652389152101096200,13.62309619140625,-0.4568736255168915,-0.9425926208496094,1.4651463031768799
1652389152111093800,13.63309375,-1.8280168771743774,-0.7997426986694336,1.7227110862731934
1652389152121091300,13.64309130859375,-3.0283854007720947,0.06734752655029297,1.778847098350525
1652389152131089000,13.6530888671875,-3.3982133865356445,0.981135368347168,1.6548545360565186
1652389152141086500,13.66308642578125,-3.5192112922668457,1.9324655532836914,-0.24905753135681152
1652389152151084000,13.673083984375,-2.8598973751068115,1.062483787536621,-0.1597551703453064
1652389152161081600,13.68308154296875,-2.505110025405884,-1.2338438034057617,0.8948990106582642
1652389152171079200,13.6930791015625,-2.557734489440918,-3.8716917037963867,1.394564151763916
1652389152181076700,13.70307666015625,-2.4195194244384766,-6.041491508483887,1.5279974937438965
1652389152191074300,13.71307421875,-2.544236660003662,-6.06295108795166,1.54136061668396
1652389152201071900,13.72307177734375,-2.6452860832214355,-8.39539909362793,2.498164653778076
1652389152211069400,13.7330693359375,-3.6654562950134277,-8.527632713317871,2.833282470703125
1652389152221067000,13.74306689453125,-4.75323486328125,-6.225659370422363,2.752943992614746
1652389152231064600,13.753064697265625,-5.366278171539307,-3.184415817260742,2.403712272644043
1652389152241062100,13.763062255859374,-4.995920181274414,-0.5176563262939453,1.7947931289672852
1652389152251059700,13.773059814453125,-3.1917619705200195,1.1815109252929688,1.6971005201339722
1652389152261057300,13.783057373046875,-1.2383137941360474,2.6788759231567383,1.3154995441436768
1652389152271054800,13.793054931640626,0.2499774694442749,3.8660426139831543,0.6135610342025757
1652389152281052400,13.803052490234375,1.4919538497924805,4.306468963623047,0.11501014232635498
1652389152291050000,13.813050048828124,2.530142068862915,4.239982604980469,-0.015783309936523438
1652389152301047600,13.823047607421875,2.1340363025665283,3.500948905944824,-0.228959321975708
1652389152311045000,13.833045166015625,1.3515100479125977,2.635812282562256,-0.5817588567733765
1652389152321042700,13.843042724609376,0.6338282823562622,2.083576202392578,-0.9431284666061401
1652389152331073500,13.853073486328125,0.013240218162536621,1.6253094673156738,-1.324334740638733
1652389152341104400,13.8631044921875,-0.6016137599945068,0.8762025833129883,-1.6514472961425781
1652389152351135200,13.87313525390625,-1.0566614866256714,0.2581653594970703,-1.7054293155670166
1652389152361166000,13.883166015625,-1.5624165534973145,-0.1862630844116211,-1.2800824642181396
1652389152371197000,13.893197021484376,-1.5820448398590088,-0.19120025634765625,-1.2867963314056396
1652389152381228000,13.90322802734375,-1.9042080640792847,0.1282482147216797,-0.876814603805542
1652389152391259000,13.9132587890625,-0.5148892402648926,0.8053503036499023,0.042435288429260254
1652389152401289700,13.923289794921875,-1.2951819896697998,1.2462186813354492,-0.2839399576187134
1652389152411320600,13.933320556640625,0.47499561309814453,1.4378662109375,0.05168938636779785
1652389152421351400,13.943351318359374,0.631283164024353,1.4008903503417969,0.420568585395813
1652389152431382300,13.95338232421875,0.9522705078125,1.5562143325805664,0.7750861644744873
1652389152441413000,13.9634130859375,1.2730447053909302,1.5445442199707031,1.0400946140289307
1652389152451444200,13.9734443359375,1.3347688913345337,1.2425870895385742,1.2997069358825684
1652389152461475000,13.98347509765625,1.3634384870529175,0.8617935180664062,1.6547672748565674
1652389152471506000,13.993505859375,1.5215191841125488,0.3985776901245117,2.110605478286743
1652389152481536800,14.003536865234375,1.9984967708587646,-0.18173789978027344,2.5502822399139404
1652389152491567600,14.013567626953124,2.5708417892456055,-0.6841182708740234,2.572279453277588
1652389152501598500,14.023598388671875,3.0780067443847656,-0.764613151550293,2.63179874420166
1652389152511629300,14.03362939453125,3.0913476943969727,-0.5988759994506836,2.470015525817871
1652389152521660400,14.043660400390625,2.8239266872406006,-0.9596281051635742,2.3618972301483154
1652389152531691300,14.053691162109375,2.086185932159424,-1.4657773971557617,2.112879753112793
1652389152541722000,14.06372216796875,1.5111427307128906,-1.5372323989868164,1.8987460136413574
1652389152551753000,14.0737529296875,1.1302224397659302,-1.2512931823730469,1.8346935510635376
1652389152561783800,14.08378369140625,0.7726422548294067,-0.9368143081665039,1.7628382444381714
1652389152571814700,14.093814697265625,-0.250718355178833,-1.6853923797607422,1.4670220613479614
1652389152581845500,14.103845458984376,-1.596645712852478,-3.6132583618164062,0.8519964218139648
1652389152591876600,14.113876708984375,-2.0393025875091553,-6.463438034057617,0.7153023481369019
1652389152601907500,14.123907470703125,-1.9790215492248535,-6.451028823852539,0.716650128364563
1652389152611938300,14.133938232421874,-1.2040340900421143,-8.706829071044922,0.6256542205810547
1652389152621969200,14.14396923828125,-1.798014760017395,-8.077677726745605,-0.8357100486755371
1652389152631966700,14.153966796875,-3.435451030731201,-5.470756530761719,-2.8867812156677246
1652389152641964300,14.16396435546875,-4.483739852905273,-1.699575424194336,-4.540058612823486
1652389152651961900,14.1739619140625,-3.198683738708496,2.520005702972412,-4.772682189941406
1652389152661959400,14.18395947265625,-1.9800379276275635,2.831328868865967,-4.026238441467285
1652389152671957000,14.19395703125,-1.1182184219360352,3.0048465728759766,-3.6338682174682617
1652389152681954300,14.203954345703124,-0.5915241241455078,2.971688747406006,-3.3312931060791016
1652389152691951900,14.213951904296875,-0.5699555277824402,2.7400197982788086,-3.344170570373535
1652389152701949400,14.223949462890625,-0.4360926151275635,1.671858787536621,-3.1539008617401123
1652389152711947000,14.233947021484376,-0.2211119532585144,0.6033353805541992,-2.8680460453033447
1652389152721944600,14.243944580078125,-0.16285324096679688,0.6178960800170898,-2.828810453414917
1652389152731942100,14.253942138671874,-0.13201886415481567,-0.3683032989501953,-2.559385299682617
1652389152741939700,14.263939697265625,-0.5001871585845947,-1.4018659591674805,-2.125392436981201
1652389152751937300,14.273937255859375,-1.0898211002349854,-2.029202461242676,-1.8152997493743896
1652389152761934800,14.283934814453126,-1.7451375722885132,-2.292147636413574,-1.8864271640777588
1652389152771932400,14.293932373046875,-1.3043975830078125,-1.6134395599365234,-2.5149435997009277
1652389152781930000,14.303929931640624,-0.23852437734603882,-1.1033315658569336,-1.970698356628418
1652389152791927600,14.313927490234375,0.9276862144470215,-0.11342525482177734,-1.601499319076538
1652389152801925000,14.323925048828125,2.1167569160461426,1.393310546875,-1.2282439470291138
1652389152811922700,14.333922607421876,2.61751127243042,2.619349956512451,-0.8317108154296875
1652389152821920300,14.343920166015625,2.4713377952575684,3.2783432006835938,-0.20613014698028564
1652389152831917800,14.353917724609374,1.9882405996322632,3.493475914001465,0.47653472423553467
1652389152841915400,14.363915283203125,1.005975365638733,3.5501060485839844,0.8910367488861084
1652389152851913000,14.373912841796875,-0.013276159763336182,3.43235445022583,1.0759429931640625
1652389152861910500,14.38391064453125,-0.93321692943573,3.101085662841797,1.2580574750900269
1652389152871908000,14.393908203125,-1.2229712009429932,2.3807482719421387,1.5399065017700195
1652389152881872400,14.403872314453125,-1.2799148559570312,1.8227567672729492,1.506034016609192
1652389152891836400,14.41383642578125,-0.8498048782348633,0.9932918548583984,1.4880969524383545
1652389152901800700,14.42380078125,-0.13534148037433624,0.13323593139648438,1.438352108001709
1652389152911765000,14.433764892578125,-0.015061512589454651,0.13691997528076172,1.440262794494629
1652389152921729300,14.443729248046875,0.6337868571281433,-0.701237678527832,1.360304355621338
1652389152931693600,14.453693603515624,1.2095959186553955,-1.3881072998046875,1.1175730228424072
1652389152941657600,14.46365771484375,1.6486636400222778,-1.664841651916504,0.48179423809051514
1652389152951622000,14.473621826171875,1.8182940483093262,-0.8176069259643555,0.12432312965393066
1652389152961586200,14.483586181640625,1.5882377624511719,0.10833168029785156,0.07656419277191162
1652389152971550500,14.493550537109375,1.2545799016952515,0.5457429885864258,0.1523137092590332
