time,seconds_elapsed,z,y,x
1646037694620736500,0.069736572265625,-4.69447135925293,-3.8945209980010986,9.228882789611816
1646037694630734600,0.079734619140625,-4.716170310974121,-3.854353189468384,8.9258394241333
1646037694640732200,0.089732177734375,-4.518479824066162,-3.671152353286743,8.353372573852539
1646037694650729700,0.099729736328125,-4.494375705718994,-3.5910680294036865,7.844809532165527
1646037694660727300,0.109727294921875,-4.539486408233643,-3.421938419342041,7.262384414672852
1646037694670724900,0.119724853515625,-4.558457374572754,-3.216968059539795,6.659036636352539
1646037694680889000,0.12988916015625,-4.521196365356445,-3.0600550174713135,6.0852155685424805
1646037694691029500,0.140029541015625,-4.37762975692749,-2.8810272216796875,5.514095306396484
1646037694701277400,0.15027734375,-4.182506084442139,-2.7104859352111816,5.049590110778809
1646037694711497200,0.160497314453125,-4.084089756011963,-2.5460453033447266,4.654627799987793
1646037694721694700,0.17069482421875,-3.8808536529541016,-2.3426284790039062,4.260643005371094
1646037694731874000,0.1808740234375,-3.6198387145996094,-2.1554183959960938,3.960881233215332
1646037694742038300,0.191038330078125,-3.316558837890625,-2.0338592529296875,3.6995763778686523
1646037694752189400,0.201189453125,-3.0927858352661133,-1.8687386512756348,3.406154155731201
1646037694762329900,0.211329833984375,-2.7693467140197754,-1.7225115299224854,2.966047763824463
1646037694772527600,0.221527587890625,-2.3336472511291504,-1.5083690881729126,2.491555690765381
1646037694782712600,0.231712646484375,-2.155576229095459,-1.569349765777588,2.2397594451904297
1646037694792886500,0.241886474609375,-2.084683895111084,-1.4489277601242065,1.949474811553955
1646037694803050800,0.25205078125,-2.0304274559020996,-1.4478615522384644,1.6790719032287598
1646037694813258800,0.2622587890625,-2.138880729675293,-1.496878743171692,1.4597549438476562
1646037694825765400,0.274765380859375,-2.1603012084960938,-1.5057199001312256,1.3316268920898438
1646037694835953400,0.284953369140625,-2.2859153747558594,-1.4414409399032593,1.1287708282470703
1646037694846132700,0.2951328125,-2.404568672180176,-1.5515005588531494,1.034719467163086
1646037694856304000,0.30530419921875,-2.5274996757507324,-1.5423346757888794,0.8590602874755859
1646037694866509800,0.315509765625,-2.538910388946533,-1.6041345596313477,0.756340503692627
1646037694876707300,0.325707275390625,-2.467167854309082,-1.723482370376587,0.6898770332336426
1646037694886897200,0.335897216796875,-2.3145060539245605,-1.7367253303527832,0.700009822845459
1646037694897080000,0.346080078125,-2.1262388229370117,-1.7479019165039062,0.7152256965637207
1646037694907256000,0.356256103515625,-2.117593288421631,-1.8426430225372314,0.666628360748291
1646037694917426000,0.366426025390625,-2.25701904296875,-1.8734400272369385,0.4656233787536621
1646037694927590100,0.376590087890625,-2.3816065788269043,-1.7681560516357422,0.16957902908325195
1646037694937754400,0.38675439453125,-2.3339552879333496,-1.6387453079223633,-0.16916465759277344
1646037694947918600,0.396918701171875,-2.3160476684570312,-1.600156307220459,-0.41244077682495117
1646037694958082800,0.407082763671875,-2.1379284858703613,-1.648423671722412,-0.4015946388244629
1646037694968247000,0.4172470703125,-1.7590141296386719,-1.8822753429412842,-0.3776578903198242
1646037694978411000,0.427410888671875,-1.430410385131836,-1.9865080118179321,-0.39765310287475586
1646037694988542000,0.4375419921875,-1.7246112823486328,-2.1995999813079834,-0.3752250671386719
1646037694998673000,0.4476728515625,-1.7823395729064941,-2.045835256576538,-0.7960586547851562
1646037695008770300,0.457770263671875,-2.1238040924072266,-2.2138373851776123,-1.1139287948608398
1646037695018867700,0.46786767578125,-2.0389537811279297,-2.13381028175354,-1.1998119354248047
1646037695028965400,0.47796533203125,-2.787132740020752,-1.669142246246338,-2.465507984161377
1646037695039063000,0.48806298828125,-2.830080032348633,-1.6154011487960815,-2.5529870986938477
1646037695049160400,0.498160400390625,-3.000995397567749,-1.633570671081543,-2.466115951538086
1646037695059257900,0.5082578125,-3.2482430934906006,-1.7249497175216675,-2.3227310180664062
1646037695069355500,0.51835546875,-5.215530872344971,-1.5700719356536865,-1.872833251953125
1646037695079419600,0.528419677734375,-4.9024481773376465,-2.5441606044769287,-1.0462522506713867
1646037695089484000,0.538484130859375,-3.8540821075439453,-3.714493751525879,-0.09433364868164062
1646037695099548200,0.548548095703125,-3.406224489212036,-3.6535677909851074,0.16614437103271484
1646037695109612300,0.5586123046875,-3.209839105606079,-3.225573778152466,0.1349954605102539
1646037695119643100,0.56864306640625,-2.565664052963257,-2.7817776203155518,-0.04118824005126953
1646037695129674000,0.578674072265625,-2.1983683109283447,-2.437584638595581,-0.23511600494384766
1646037695139704800,0.588704833984375,-2.2010138034820557,-2.5562074184417725,-0.14634418487548828
1646037695149736000,0.59873583984375,-2.5455832481384277,-2.6661479473114014,-0.17238998413085938
1646037695159766800,0.608766845703125,-2.8758692741394043,-2.371706962585449,-0.5586309432983398
1646037695169764400,0.618764404296875,-2.9741764068603516,-2.7560641765594482,-0.47550487518310547
1646037695179762000,0.628761962890625,-3.30391263961792,-2.6292269229888916,-0.6219005584716797
1646037695189759500,0.638759521484375,-3.31949520111084,-2.575706958770752,-0.6568536758422852
1646037695199757000,0.648757080078125,-3.5859668254852295,-2.2754831314086914,-0.7792396545410156
1646037695209754600,0.658754638671875,-2.9611778259277344,-3.0136210918426514,-0.019471168518066406
1646037695219752200,0.668752197265625,-2.8253917694091797,-2.7684340476989746,-0.030134201049804688
1646037695229749500,0.67874951171875,-2.472470998764038,-3.3998239040374756,0.5665521621704102
1646037695239747000,0.6887470703125,-2.018913507461548,-3.131761312484741,0.3511037826538086
1646037695249744600,0.69874462890625,-1.4659357070922852,-3.208876609802246,0.2580423355102539
1646037695259742200,0.7087421875,-0.6137514114379883,-3.1208112239837646,0.22069740295410156
1646037695269739800,0.71873974609375,-0.008728742599487305,-2.6988980770111084,0.21286296844482422
1646037695279737600,0.728737548828125,0.11124944686889648,-2.500741958618164,0.3416109085083008
1646037695289735000,0.73873486328125,0.3398561477661133,-2.1767144203186035,0.6879968643188477
1646037695299732500,0.748732421875,0.27659010887145996,-2.5328726768493652,1.1779766082763672
1646037695309730000,0.75872998046875,-0.10540199279785156,-2.219559669494629,1.3574342727661133
1646037695319727600,0.7687275390625,-0.2518033981323242,-2.3397040367126465,1.8170537948608398
1646037695329725200,0.77872509765625,0.06609153747558594,-3.2798023223876953,2.607651710510254
1646037695339722800,0.78872265625,0.5693693161010742,-3.8977203369140625,3.459857940673828
1646037695349720300,0.79872021484375,0.7518788576126099,-4.202581882476807,4.4630584716796875
1646037695359718000,0.8087177734375,0.6614543199539185,-4.299678802490234,4.522442817687988
1646037695369715500,0.818715576171875,0.6026216745376587,-4.113612651824951,4.150942802429199
1646037695379713000,0.828713134765625,0.4712824821472168,-3.7932186126708984,4.044919967651367
1646037695389710600,0.838710693359375,-0.48670268058776855,-3.2969207763671875,3.610506057739258
1646037695399708200,0.848708251953125,-0.9558095335960388,-3.1628317832946777,3.2969284057617188
1646037695409705700,0.858705810546875,-1.2493337392807007,-2.7698044776916504,2.8922371864318848
1646037695419703300,0.868703369140625,-0.9272701740264893,-2.629451274871826,2.2866225242614746
1646037695429700900,0.878700927734375,-0.5371615886688232,-2.4775538444519043,1.7845497131347656
1646037695439698400,0.888698486328125,0.1980588436126709,-1.9381442070007324,1.1026229858398438
1646037695449696000,0.898696044921875,0.5474157333374023,-1.773118019104004,0.7524495124816895
1646037695459693600,0.908693603515625,1.0955547094345093,-1.5003056526184082,0.7195968627929688
1646037695469691100,0.918691162109375,0.6452559232711792,-1.0629158020019531,0.5032706260681152
1646037695479688700,0.928688720703125,0.6551518440246582,-0.3553800582885742,0.3577742576599121
1646037695489686300,0.938686279296875,0.646403431892395,-0.01852893829345703,0.530278205871582
1646037695499683800,0.948683837890625,0.6661685705184937,0.5727076530456543,0.4262866973876953
1646037695509681400,0.958681396484375,0.8296247720718384,1.1399140357971191,0.15515851974487305
1646037695519679000,0.968678955078125,0.9941122531890869,1.348862648010254,-0.03470611572265625
1646037695529676500,0.978676513671875,1.1849125623703003,1.4801793098449707,-0.3939704895019531
1646037695539674000,0.988674072265625,1.093381404876709,1.4544544219970703,-0.5000929832458496
1646037695549671400,0.99867138671875,1.066760540008545,1.457296371459961,-0.2550973892211914
1646037695559669000,1.0086689453125,0.8845399618148804,1.4437565803527832,0.12555980682373047
1646037695569666600,1.01866650390625,0.4692699909210205,1.3762292861938477,0.6007876396179199
1646037695579664100,1.0286640625,-0.08706510066986084,1.3436188697814941,0.9907793998718262
1646037695589661700,1.03866162109375,-0.6577917337417603,1.2683320045471191,1.282163143157959
1646037695599659300,1.0486591796875,-1.2225345373153687,1.2321972846984863,1.376784324645996
1646037695609656800,1.05865673828125,-1.6145299673080444,1.2318825721740723,1.419405460357666
1646037695619654400,1.068654296875,-1.8466973304748535,1.2095813751220703,1.4501533508300781
1646037695629652000,1.07865185546875,-1.9143613576889038,1.0666680335998535,1.5262794494628906
1646037695639649500,1.0886494140625,-1.8311748504638672,1.1366691589355469,1.4762849807739258
1646037695649647000,1.098647216796875,-1.7304120063781738,1.189681053161621,1.3727517127990723
1646037695659644700,1.108644775390625,-1.6500271558761597,1.2954225540161133,1.4223408699035645
1646037695669642200,1.118642333984375,-1.6284396648406982,1.3833813667297363,1.4059944152832031
1646037695679639800,1.128639892578125,-1.5350013971328735,1.5025243759155273,1.396754264831543
1646037695689637400,1.138637451171875,-1.1795992851257324,1.5705761909484863,1.113759994506836
1646037695699635000,1.148635009765625,-0.8723788857460022,1.6133599281311035,0.9278044700622559
1646037695709632300,1.15863232421875,-0.4593474864959717,1.6647539138793945,0.729067325592041
1646037695719629800,1.1686298828125,-0.07642114162445068,1.7228870391845703,0.5874242782592773
1646037695729627400,1.17862744140625,0.09779191017150879,1.6703968048095703,0.5558357238769531
1646037695739625000,1.188625,0.23403489589691162,1.6826577186584473,0.517913818359375
1646037695749622500,1.19862255859375,0.07800459861755371,1.6777892112731934,0.5858392715454102
1646037695759620000,1.2086201171875,-0.10487055778503418,1.669435977935791,0.636385440826416
1646037695769617700,1.21861767578125,-0.3194887638092041,1.6886754035949707,0.7202486991882324
1646037695779615200,1.228615234375,-0.5380893349647522,1.7041091918945312,0.8275599479675293
1646037695789612800,1.23861279296875,-0.9494850635528564,1.7419190406799316,0.8887896537780762
1646037695799610400,1.2486103515625,-1.433797001838684,1.5828757286071777,0.9845552444458008
1646037695809608000,1.25860791015625,-1.930677890777588,1.4090375900268555,1.1632790565490723
1646037695819605500,1.26860546875,-2.6346635818481445,1.2320551872253418,1.2515559196472168
1646037695829603000,1.27860302734375,-2.858168601989746,1.3475427627563477,1.1322002410888672
1646037695839600600,1.2886005859375,-2.9564907550811768,1.0745668411254883,1.3378686904907227
1646037695849598200,1.29859814453125,-2.873093366622925,0.8164634704589844,1.282292366027832
1646037695859595800,1.308595703125,-2.889277935028076,0.7726554870605469,1.2441234588623047
1646037695869593300,1.31859326171875,-1.7023805379867554,0.8386540412902832,0.7185215950012207
1646037695879591000,1.3285908203125,-1.2736409902572632,0.6619887351989746,0.6462368965148926
1646037695889588500,1.33858837890625,-0.7624136209487915,0.4582862854003906,0.6236419677734375
1646037695899586000,1.3485859375,-0.3036050796508789,0.31226682662963867,0.6236143112182617
1646037695909583600,1.35858349609375,-0.012417197227478027,0.08037805557250977,0.5412445068359375
1646037695919581200,1.368581298828125,0.3202618360519409,-0.09195375442504883,0.47206592559814453
1646037695929578800,1.378578857421875,0.32585036754608154,-0.2774977684020996,0.40054988861083984
1646037695939576300,1.388576416015625,0.18375647068023682,-0.5006003379821777,0.3901796340942383
1646037695949574000,1.398573974609375,-0.04896140098571777,-0.758723258972168,0.5127038955688477
1646037695959571500,1.408571533203125,-0.3412911891937256,-0.9367132186889648,0.5836358070373535
1646037695969569000,1.418569091796875,-0.6015366315841675,-1.1127018928527832,0.5797982215881348
1646037695979566600,1.428566650390625,-0.8033153414726257,-1.2744317054748535,0.42781734466552734
1646037695989564200,1.438564208984375,-0.7885518074035645,-1.2047128677368164,0.21813344955444336
1646037695999561700,1.448561767578125,-0.7555083632469177,-1.505678653717041,0.4639244079589844
1646037696009559300,1.458559326171875,-0.9049674272537231,-2.4643497467041016,1.2053260803222656
1646037696019556900,1.468556884765625,-1.0024113655090332,-3.5259909629821777,1.8335041999816895
1646037696029554400,1.478554443359375,-0.8058262467384338,-4.072895526885986,1.9921140670776367
1646037696039552000,1.488552001953125,-0.47760969400405884,-4.340236186981201,1.8984894752502441
1646037696049549600,1.498549560546875,-0.029004693031311035,-4.340657711029053,1.821310043334961
1646037696059547100,1.508547119140625,0.30010902881622314,-4.262501239776611,2.0262746810913086
1646037696069544400,1.51854443359375,0.5999636650085449,-4.143279075622559,2.3488540649414062
1646037696079542000,1.5285419921875,0.9377274513244629,-3.8406410217285156,2.4946060180664062
1646037696089539600,1.53853955078125,1.2387346029281616,-3.499290943145752,2.450399398803711
1646037696099537200,1.548537109375,1.5140297412872314,-3.1908726692199707,2.1558103561401367
1646037696109534700,1.55853466796875,2.1229162216186523,-2.7023749351501465,1.2887077331542969
1646037696119532300,1.5685322265625,2.512906789779663,-2.280472755432129,0.26869869232177734
1646037696129529900,1.57852978515625,2.791184425354004,-1.8019285202026367,-0.8219656944274902
1646037696139527400,1.58852734375,2.542104721069336,-1.5247526168823242,-1.390127182006836
1646037696149525000,1.59852490234375,1.7206480503082275,-1.3977293968200684,-1.563492774963379
1646037696159522600,1.6085224609375,0.8960005044937134,-1.4405879974365234,-1.6801362037658691
1646037696169520000,1.61852001953125,0.09823137521743774,-1.5250935554504395,-1.9510917663574219
1646037696179517700,1.628517578125,-0.6294132471084595,-1.8995027542114258,-2.1521873474121094
1646037696189515300,1.638515380859375,-1.2084048986434937,-2.0682058334350586,-2.6387743949890137
1646037696199512800,1.648512939453125,-1.293567419052124,-1.8682169914245605,-3.2947888374328613
1646037696209510400,1.658510498046875,-1.5949244499206543,-2.455733299255371,-3.2104759216308594
1646037696219508000,1.668508056640625,-1.4182487726211548,-2.430111885070801,-3.494584083557129
1646037696229505500,1.678505615234375,-0.9673384428024292,-2.4367189407348633,-3.6345105171203613
1646037696239503000,1.688503173828125,-0.785068154335022,-2.586304187774658,-3.5481605529785156
1646037696249500700,1.698500732421875,-0.5582266449928284,-2.70698881149292,-3.2778711318969727
1646037696259498200,1.708498291015625,-0.3676905632019043,-2.646739959716797,-3.0686473846435547
1646037696269495800,1.718495849609375,-0.19497671723365784,-2.5784263610839844,-2.8071842193603516
1646037696279493400,1.728493408203125,-0.07385297119617462,-2.4886207580566406,-2.4855756759643555
1646037696289491000,1.738490966796875,-0.0111471489071846,-2.3371810913085938,-2.189124584197998
1646037696299488300,1.74848828125,0.0024438202381134033,-2.166623592376709,-2.071955680847168
1646037696309485800,1.75848583984375,0.08605469763278961,-1.9946951866149902,-1.9575581550598145
1646037696319483400,1.7684833984375,0.18100595474243164,-1.7848091125488281,-1.945037841796875
1646037696329481000,1.77848095703125,0.2975483536720276,-1.6222748756408691,-2.047245979309082
1646037696339478500,1.788478515625,0.424973726272583,-1.42596435546875,-2.2451858520507812
1646037696349476000,1.79847607421875,0.5579752326011658,-1.2549457550048828,-2.4522910118103027
1646037696359473700,1.8084736328125,0.6120543479919434,-1.1706886291503906,-2.615499973297119
1646037696369471200,1.81847119140625,0.5780858993530273,-1.0073375701904297,-2.925996780395508
1646037696379468800,1.82846875,0.6041543483734131,-0.8305668830871582,-3.148373603820801
1646037696389466400,1.83846630859375,0.612043559551239,-0.7193160057067871,-3.2214670181274414
1646037696399464000,1.8484638671875,0.6532618999481201,-0.6334705352783203,-3.1681900024414062
1646037696409461500,1.85846142578125,0.7086436748504639,-0.5183897018432617,-3.1419363021850586
1646037696419459000,1.868458984375,0.6897257566452026,-0.46642160415649414,-3.1243457794189453
1646037696429456600,1.87845654296875,0.6556702256202698,-0.48572587966918945,-3.118335247039795
1646037696439454200,1.8884541015625,0.570615828037262,-0.5189847946166992,-3.238861083984375
1646037696449451800,1.89845166015625,0.5191152691841125,-0.5367474555969238,-3.322732448577881
1646037696459449300,1.908449462890625,0.4757150411605835,-0.5994491577148438,-3.3449201583862305
1646037696469447000,1.918447021484375,0.438088059425354,-0.6602368354797363,-3.3668675422668457
1646037696479444500,1.928444580078125,0.37978488206863403,-0.6919589042663574,-3.440685272216797
1646037696489442000,1.938442138671875,0.10021735727787018,-0.7390713691711426,-3.534553050994873
1646037696499439600,1.948439697265625,-0.0823565274477005,-0.7441658973693848,-3.429069995880127
1646037696509437200,1.958437255859375,-0.19960418343544006,-0.7166633605957031,-3.2245535850524902
1646037696519434800,1.968434814453125,-0.26217401027679443,-0.6913280487060547,-2.971923828125
1646037696529432300,1.978432373046875,-0.24198026955127716,-0.7467613220214844,-2.667487144470215
1646037696539430000,1.988429931640625,-0.2579365074634552,-0.7770342826843262,-2.4128336906433105
1646037696549427500,1.998427490234375,-0.24759723246097565,-0.7714128494262695,-2.1511640548706055
1646037696559424800,2.0084248046875,-0.22101494669914246,-0.8204398155212402,-1.8860807418823242
1646037696569422300,2.01842236328125,-0.228428453207016,-0.9249215126037598,-1.711440086364746
1646037696579420000,2.028419921875,-0.22298333048820496,-1.1349773406982422,-1.5336542129516602
1646037696589417500,2.03841748046875,-0.1327524185180664,-1.2932415008544922,-1.3753466606140137
1646037696599415000,2.0484150390625,-0.0869704931974411,-1.3933920860290527,-1.2042241096496582
1646037696609412600,2.05841259765625,-0.13900792598724365,-1.5396709442138672,-0.8181290626525879
1646037696619410200,2.06841015625,0.044819533824920654,-1.61885404586792,-0.29944658279418945
1646037696629407700,2.07840771484375,0.12275929749011993,-1.497230052947998,0.1367788314819336
1646037696639405300,2.0884052734375,0.12105336040258408,-1.4910025596618652,0.5651612281799316
1646037696649403000,2.09840283203125,-0.04968744516372681,-1.6105108261108398,1.0784015655517578
1646037696659400400,2.108400390625,-0.38407379388809204,-1.8394699096679688,1.4053301811218262
1646037696669398000,2.11839794921875,-0.7965149283409119,-2.7954258918762207,2.2402729988098145
1646037696679428900,2.128428955078125,-1.2409491539001465,-3.310678482055664,2.5097522735595703
1646037696689460000,2.1384599609375,-1.2913219928741455,-3.266204833984375,2.302208423614502
1646037696699490800,2.14849072265625,-1.222827672958374,-3.2043962478637695,1.9005537033081055
1646037696709521700,2.158521728515625,-0.9084146618843079,-3.100004196166992,1.3009042739868164
1646037696719552500,2.168552490234375,-0.5908693075180054,-2.9053683280944824,0.9047331809997559
1646037696729583400,2.178583251953125,-0.027877643704414368,-2.606719970703125,0.6825070381164551
1646037696739614200,2.1886142578125,0.53263920545578,-2.058955192565918,0.5855293273925781
1646037696749645000,2.19864501953125,0.9668156504631042,-1.4400444030761719,0.6108956336975098
1646037696759676200,2.20867626953125,1.1186010837554932,-0.628697395324707,0.6428155899047852
1646037696769707000,2.21870703125,0.9790313839912415,0.1720132827758789,0.7536115646362305
1646037696779737900,2.22873779296875,0.769745945930481,0.868067741394043,0.7799878120422363
1646037696789768700,2.238768798828125,0.565848708152771,1.4823288917541504,0.7664132118225098
1646037696799799600,2.248799560546875,0.24057379364967346,1.7765870094299316,0.5965805053710938
1646037696809830400,2.258830322265625,0.09490180015563965,1.8496417999267578,0.5243520736694336
1646037696819861200,2.268861328125,0.11288505792617798,1.8598814010620117,0.3681964874267578
1646037696829892400,2.278892333984375,0.1707012951374054,1.7530107498168945,0.30833005905151367
1646037696839923200,2.288923095703125,0.24712124466896057,1.5672006607055664,0.45944976806640625
1646037696849954000,2.2989541015625,0.24083369970321655,1.3921308517456055,0.7364435195922852
1646037696859985000,2.30898486328125,0.0912000983953476,1.1613044738769531,1.2091355323791504
1646037696870015700,2.319015625,-0.18115663528442383,1.006028652191162,1.6064586639404297
1646037696880046600,2.329046630859375,-0.5349075794219971,1.1530365943908691,1.7311034202575684
1646037696890077400,2.339077392578125,-1.0244098901748657,0.8759851455688477,2.1230578422546387
1646037696900108500,2.349108642578125,-1.269290804862976,0.9083342552185059,2.1367201805114746
1646037696910139400,2.359139404296875,-1.3050988912582397,1.032884120941162,1.8850207328796387
1646037696920170200,2.369170166015625,-1.2498257160186768,1.0721540451049805,1.571058750152588
1646037696930201000,2.379201171875,-0.9584221839904785,0.9551477432250977,1.1647238731384277
1646037696940232000,2.38923193359375,-0.45670631527900696,0.968846321105957,0.7066521644592285
1646037696950262800,2.3992626953125,0.08818894624710083,0.8826794624328613,0.23952484130859375
1646037696960293600,2.409293701171875,0.5795699954032898,0.7587051391601562,0.055841922760009766
1646037696970324500,2.419324462890625,0.9935550689697266,0.7957649230957031,-0.11209774017333984
1646037696980322000,2.429322021484375,1.3627004623413086,0.9026212692260742,-0.21425104141235352
1646037696990319600,2.439319580078125,1.6376044750213623,0.9468374252319336,-0.13667631149291992
1646037697000317200,2.449317138671875,1.745216965675354,1.022934913635254,-0.07721614837646484
1646037697010314800,2.459314697265625,1.8457173109054565,1.1869831085205078,-0.056662559509277344
1646037697020312300,2.469312255859375,1.8983920812606812,1.2963104248046875,-0.06705570220947266
1646037697030310000,2.479309814453125,1.8351256847381592,1.4411168098449707,-0.037423133850097656
1646037697040307500,2.489307373046875,1.676458716392517,1.4920248985290527,0.017921924591064453
1646037697050305000,2.499304931640625,1.5103296041488647,1.6216230392456055,0.11606359481811523
1646037697060302600,2.509302490234375,1.256591558456421,1.7745914459228516,0.3046693801879883
1646037697070300200,2.519300048828125,0.9190877079963684,1.836031436920166,0.526334285736084
1646037697080297700,2.529297607421875,0.578408420085907,1.8553481101989746,0.6698117256164551
1646037697090295300,2.53929541015625,0.22658422589302063,1.8505792617797852,0.7649250030517578
1646037697100292900,2.54929296875,-0.04923493415117264,1.7570562362670898,1.0078725814819336
1646037697110290400,2.55929052734375,-0.011965308338403702,1.861680507659912,1.0054597854614258
1646037697120287700,2.569287841796875,-0.02196596935391426,1.81650972366333,1.046403408050537
1646037697130285300,2.579285400390625,-0.0707685798406601,1.9615740776062012,0.7219161987304688
1646037697140283000,2.589282958984375,-0.12875673174858093,2.020730495452881,0.6086745262145996
1646037697150280400,2.599280517578125,-0.2700763940811157,1.9873909950256348,0.7008929252624512
1646037697160278000,2.609278076171875,-0.49915677309036255,2.030806541442871,1.091700553894043
1646037697170275600,2.619275634765625,-0.47549599409103394,2.051154613494873,1.503401756286621
1646037697180273200,2.629273193359375,-0.28024983406066895,2.0118789672851562,1.9558844566345215
1646037697190270700,2.639270751953125,0.04983057081699371,1.8403291702270508,2.3612256050109863
1646037697200268300,2.649268310546875,0.3226196765899658,1.7994847297668457,2.445321559906006
1646037697210265900,2.659265869140625,0.6329488754272461,1.7684097290039062,2.361790657043457
1646037697220263400,2.669263427734375,0.7193204760551453,1.6147403717041016,2.250189781188965
1646037697230261000,2.679260986328125,0.6570265889167786,1.4577140808105469,2.244746685028076
1646037697240258600,2.689258544921875,0.578201174736023,1.4066481590270996,2.2085776329040527
1646037697250256100,2.699256103515625,0.2444613128900528,1.3143310546875,2.387418746948242
1646037697260253700,2.709253662109375,0.06666092574596405,1.2296514511108398,2.6197023391723633
1646037697270251300,2.719251220703125,-0.1166551485657692,1.1137266159057617,2.9142398834228516
1646037697280248800,2.729248779296875,-0.2921907305717468,1.010605812072754,3.1567068099975586
1646037697290246100,2.73924609375,-0.4673510491847992,0.9117522239685059,3.3455653190612793
1646037697300243700,2.74924365234375,-0.566160261631012,0.8235116004943848,3.419987201690674
1646037697310241300,2.7592412109375,-0.6495469212532043,0.7525129318237305,3.281324863433838
1646037697320238800,2.76923876953125,-0.6748039722442627,0.49507761001586914,3.303044319152832
1646037697330236400,2.779236328125,-0.9847592711448669,-0.42702674865722656,3.6440634727478027
1646037697340234000,2.78923388671875,-1.214795708656311,-1.1821675300598145,3.687777519226074
1646037697350231600,2.7992314453125,-1.207113265991211,-1.5457091331481934,3.4524879455566406
1646037697360229000,2.80922900390625,-1.1681296825408936,-1.7928876876831055,3.4104576110839844
1646037697370226700,2.819226806640625,-1.001448154449463,-1.887258529663086,3.478696823120117
1646037697380224300,2.829224365234375,-0.8972222805023193,-1.9007763862609863,3.583101272583008
1646037697390221800,2.839221923828125,-0.5376760959625244,-1.4511456489562988,3.514425277709961
1646037697400219400,2.849219482421875,-0.1265946626663208,-1.2724370956420898,3.433760643005371
1646037697410217000,2.859217041015625,0.5298199653625488,-1.1975069046020508,3.213810920715332
1646037697420214500,2.869214599609375,1.236904263496399,-1.17901611328125,2.885226249694824
1646037697430212000,2.879212158203125,1.9576566219329834,-0.9960598945617676,2.0443243980407715
1646037697440209700,2.889209716796875,2.401082992553711,-0.840233325958252,1.302037239074707
1646037697450207200,2.899207275390625,2.6323435306549072,-0.5496640205383301,0.4710721969604492
1646037697460204800,2.909204833984375,2.6141462326049805,-0.09711217880249023,-0.33508872985839844
1646037697470202400,2.919202392578125,2.2908010482788086,0.10552597045898438,-0.8075323104858398
1646037697480200000,2.929199951171875,1.6333351135253906,0.07896804809570312,-1.054570198059082
1646037697490197500,2.939197509765625,0.8318523168563843,-0.0428614616394043,-1.1792478561401367
1646037697500195000,2.949195068359375,0.17851540446281433,-0.1533970832824707,-1.326456069946289
1646037697510192600,2.959192626953125,-0.6924535036087036,-0.21034669876098633,-1.4899506568908691
1646037697520190200,2.969190185546875,-1.5826534032821655,-0.35049915313720703,-1.4647111892700195
1646037697530187800,2.979187744140625,-2.3857333660125732,-0.5854568481445312,-1.1148357391357422
1646037697540185300,2.989185302734375,-2.917039394378662,-0.8425655364990234,-0.7468242645263672
1646037697550183000,2.999182861328125,-3.1185665130615234,-0.9140396118164062,-0.6346235275268555
1646037697560180500,3.009180419921875,-3.047391176223755,-0.9441375732421875,-0.6946845054626465
1646037697570178000,3.019177978515625,-2.8017334938049316,-1.10003662109375,-0.5811986923217773
1646037697580175600,3.029175537109375,-2.5658297538757324,-1.2613554000854492,-0.42050886154174805
1646037697590206500,3.03920654296875,-2.255417823791504,-1.4118852615356445,-0.4933762550354004
1646037697600237300,3.0492373046875,-1.9306303262710571,-1.5325431823730469,-0.5818185806274414
1646037697610268200,3.05926806640625,-1.6243120431900024,-1.702775001525879,-0.6171607971191406
1646037697620299000,3.069299072265625,-1.3288507461547852,-1.8745698928833008,-0.5277466773986816
1646037697630330000,3.079330078125,-0.9097758531570435,-1.9896869659423828,-0.38900184631347656
1646037697640361000,3.08936083984375,-0.4332796335220337,-2.064732551574707,-0.436920166015625
1646037697650391800,3.099391845703125,-0.05983063578605652,-2.137571334838867,-0.5049118995666504
1646037697660422700,3.109422607421875,0.22675709426403046,-2.1756362915039062,-0.6699905395507812
1646037697670453500,3.11945361328125,0.4903641939163208,-2.1002392768859863,-1.135854721069336
1646037697680484600,3.129484619140625,0.6678677797317505,-2.0210719108581543,-1.5406265258789062
1646037697690515200,3.13951513671875,0.8025143146514893,-1.9696240425109863,-1.9956698417663574
1646037697700546300,3.14954638671875,0.8707189559936523,-1.8517875671386719,-2.4009904861450195
1646037697710577200,3.1595771484375,0.920628547668457,-1.7653956413269043,-2.656954288482666
1646037697720608000,3.16960791015625,0.8225006461143494,-1.6995410919189453,-2.8453192710876465
1646037697730638800,3.179638916015625,0.6415177583694458,-1.5668025016784668,-2.9693002700805664
1646037697740669700,3.189669677734375,0.5167781710624695,-1.499058723449707,-2.9812116622924805
1646037697750700500,3.199700439453125,0.32750585675239563,-1.4781913757324219,-2.9846673011779785
1646037697760731400,3.2097314453125,0.22726774215698242,-1.4937796592712402,-3.035712242126465
1646037697770762500,3.219762451171875,0.1508461833000183,-1.5037946701049805,-3.144596576690674
1646037697780793300,3.22979345703125,0.173675999045372,-1.5424938201904297,-3.2614974975585938
1646037697790824200,3.23982421875,0.22692258656024933,-1.5569186210632324,-3.458155632019043
1646037697800855000,3.24985498046875,0.32860681414604187,-1.5619759559631348,-3.6688404083251953
1646037697810886000,3.259885986328125,0.42401817440986633,-1.565457820892334,-3.861433982849121
1646037697820917000,3.2699169921875,0.5456608533859253,-1.5323128700256348,-3.9272890090942383
1646037697830947800,3.27994775390625,0.6538863778114319,-1.501817226409912,-3.940828800201416
1646037697840978700,3.289978759765625,0.6709516644477844,-1.5000991821289062,-3.8868770599365234
1646037697851009500,3.300009521484375,0.6739802360534668,-1.4565963745117188,-3.91513729095459
1646037697861040400,3.310040283203125,0.7596153616905212,-1.4210844039916992,-3.9034900665283203
1646037697871071200,3.3200712890625,0.644668459892273,-1.3839521408081055,-3.7871923446655273
1646037697881102000,3.33010205078125,0.46012911200523376,-1.3906068801879883,-3.611583709716797
1646037697891099600,3.340099609375,0.25126439332962036,-1.4152112007141113,-3.4486117362976074
1646037697901097200,3.35009716796875,-0.02340630441904068,-1.4320769309997559,-3.2937989234924316
1646037697911094800,3.3600947265625,-0.18267107009887695,-1.4536042213439941,-3.0993919372558594
1646037697921092400,3.37009228515625,-0.25158071517944336,-1.4917583465576172,-2.922689914703369
1646037697931090000,3.38008984375,-0.22590157389640808,-1.5466313362121582,-2.7060413360595703
1646037697941087500,3.39008740234375,-0.1374974548816681,-1.5927238464355469,-2.5264549255371094
1646037697951085000,3.4000849609375,0.009997442364692688,-1.5538229942321777,-2.3337011337280273
1646037697961082600,3.41008251953125,0.07181603461503983,-1.4996709823608398,-2.1062583923339844
1646037697971080200,3.420080078125,0.10971644520759583,-1.4617881774902344,-1.8130707740783691
1646037697981077800,3.430077880859375,-0.03299655392765999,-1.4216580390930176,-1.5526208877563477
1646037697991075300,3.440075439453125,-0.24970820546150208,-1.5146360397338867,-1.1251626014709473
1646037698001073000,3.450072998046875,-0.7296048402786255,-2.090089797973633,-0.5149140357971191
1646037698011070200,3.4600703125,-1.1276181936264038,-2.5050840377807617,-0.23279905319213867
1646037698021067800,3.47006787109375,-1.4119762182235718,-3.332118511199951,0.21412086486816406
1646037698031065300,3.4800654296875,-1.348509669303894,-3.656859874725342,0.14043664932250977
1646037698041063000,3.49006298828125,-0.953033447265625,-3.3746914863586426,-0.021223068237304688
1646037698051060500,3.500060546875,-0.588409960269928,-3.248882293701172,0.002597808837890625
1646037698061058000,3.51005810546875,-0.19483935832977295,-3.132288932800293,0.22064542770385742
1646037698071055600,3.5200556640625,0.325080007314682,-2.927426815032959,0.5369400978088379
1646037698081053200,3.53005322265625,0.7263081073760986,-2.718003749847412,0.7079277038574219
1646037698091050800,3.54005078125,1.3166563510894775,-2.3026647567749023,0.745978832244873
1646037698101048300,3.55004833984375,1.7803971767425537,-1.8687191009521484,0.7678980827331543
1646037698111046000,3.5600458984375,2.1936240196228027,-1.3844637870788574,0.8866772651672363
1646037698121043500,3.57004345703125,2.5539021492004395,-0.7530288696289062,1.0220417976379395
1646037698131041000,3.580041015625,2.7505431175231934,-0.11677742004394531,1.1102190017700195
1646037698141038600,3.59003857421875,2.7604949474334717,0.5919380187988281,1.2299518585205078
1646037698151036200,3.6000361328125,2.5876026153564453,1.0264925956726074,1.5290427207946777
1646037698161033700,3.61003369140625,2.454407215118408,1.288285255432129,1.710726261138916
1646037698171031300,3.62003125,2.180652141571045,1.4647984504699707,1.8616161346435547
1646037698181028900,3.63002880859375,1.9183177947998047,1.4739799499511719,1.9516139030456543
1646037698191026200,3.640026123046875,1.8370238542556763,1.5297002792358398,1.9549078941345215
1646037698201023700,3.650023681640625,1.7338531017303467,1.5228829383850098,1.9493699073791504
1646037698211021300,3.660021240234375,1.4589872360229492,1.548753261566162,2.107353687286377
1646037698221019000,3.670018798828125,1.1602586507797241,1.5227727890014648,2.411893844604492
1646037698231016400,3.680016357421875,0.7271186709403992,1.5146584510803223,2.755507469177246
1646037698241014000,3.690013916015625,0.28682664036750793,1.5278878211975098,3.040656089782715
1646037698251011600,3.700011474609375,-0.07461640238761902,1.495983600616455,3.2190117835998535
1646037698261009200,3.710009033203125,-0.4188123941421509,1.4915432929992676,3.1818113327026367
1646037698271006700,3.7200068359375,-0.7195159196853638,1.4940142631530762,2.9908223152160645
1646037698281004300,3.73000439453125,-0.8941209316253662,1.468832015991211,2.7580313682556152
1646037698291001900,3.740001953125,-0.9441367387771606,1.4486455917358398,2.425776481628418
1646037698300999400,3.74999951171875,-0.7616498470306396,1.4013543128967285,2.082390785217285
1646037698310997000,3.7599970703125,-0.31167593598365784,1.3144702911376953,1.8095579147338867
1646037698320994600,3.76999462890625,0.1974695920944214,1.256434440612793,1.5756397247314453
1646037698330992000,3.7799921875,0.8412895798683167,1.2230544090270996,1.4100470542907715
1646037698340989700,3.78998974609375,1.3237907886505127,1.274350643157959,1.353233814239502
1646037698350987300,3.7999873046875,1.8562613725662231,1.388099193572998,1.260472297668457
1646037698360984800,3.80998486328125,2.240128755569458,1.4913415908813477,1.1609525680541992
1646037698370982400,3.819982421875,2.444977283477783,1.528782844543457,1.1930532455444336
1646037698380980000,3.82997998046875,2.551917314529419,1.5503005981445312,1.1287035942077637
1646037698390977500,3.8399775390625,2.5985727310180664,1.6701054573059082,0.8438677787780762
1646037698400975000,3.84997509765625,2.5180068016052246,1.7200288772583008,0.5401639938354492
1646037698410972700,3.85997265625,2.2860355377197266,1.723703384399414,0.2446422576904297
1646037698420970200,3.86997021484375,2.145650625228882,1.6975393295288086,0.0656123161315918
1646037698430967800,3.8799677734375,2.0806875228881836,1.6855506896972656,-0.07689380645751953
1646037698440965400,3.88996533203125,1.9127225875854492,1.6649422645568848,0.019942760467529297
1646037698450963000,3.899962890625,1.649401307106018,1.588479995727539,0.24451589584350586
1646037698460960300,3.909960205078125,1.425828218460083,1.6422348022460938,0.3278994560241699
1646037698470957800,3.919957763671875,1.1503522396087646,1.7287826538085938,0.4044351577758789
1646037698480955400,3.929955322265625,0.8290430307388306,1.7776217460632324,0.537419319152832
1646037698490953000,3.939952880859375,0.4561627507209778,1.8914079666137695,0.7001357078552246
1646037698500950500,3.949950439453125,-0.016866235062479973,2.007068634033203,0.889042854309082
1646037698510948000,3.959947998046875,-0.5898597836494446,2.0309815406799316,1.1372551918029785
1646037698520945700,3.969945556640625,-0.9559420943260193,2.057650089263916,1.1844348907470703
1646037698530943200,3.979943115234375,-1.2429691553115845,2.0961127281188965,1.2044477462768555
1646037698540940800,3.98994091796875,-1.4161421060562134,1.9883995056152344,1.2594728469848633
1646037698550938400,3.9999384765625,-1.3896664381027222,1.7805776596069336,1.3190727233886719
1646037698560936000,4.00993603515625,-1.2463619709014893,1.5167474746704102,1.394127368927002
1646037698570933500,4.01993359375,-0.9371979236602783,1.2333884239196777,1.4446649551391602
1646037698580931000,4.02993115234375,-0.7830119132995605,1.0290741920471191,1.538316249847412
1646037698590928600,4.0399287109375,-0.6109979748725891,0.7992620468139648,1.7312841415405273
1646037698600926200,4.04992626953125,-0.5205647349357605,0.6539325714111328,1.987501621246338
1646037698610923800,4.059923828125,-0.41509780287742615,0.5588116645812988,2.202908992767334
1646037698620921300,4.06992138671875,-0.49138352274894714,0.517876148223877,2.347836494445801
1646037698630919000,4.0799189453125,-0.6326168775558472,0.478029727935791,2.5725669860839844
1646037698640916500,4.08991650390625,-0.7947002649307251,0.5251321792602539,2.6420092582702637
1646037698650914000,4.0999140625,-0.9190667867660522,0.44549989700317383,2.787670135498047
1646037698660911600,4.10991162109375,-1.217179536819458,-0.08515644073486328,3.127976894378662
1646037698670909200,4.1199091796875,-1.4976141452789307,-0.7835540771484375,3.3120317459106445
1646037698680906800,4.12990673828125,-1.4154547452926636,-1.1160717010498047,3.226861000061035
1646037698690904300,4.139904296875,-1.2099086046218872,-1.2210655212402344,2.99758243560791
1646037698700902000,4.14990185546875,-1.1250280141830444,-1.558988094329834,3.176980972290039
1646037698710899200,4.159899169921875,-0.9739781618118286,-1.4116315841674805,3.1574625968933105
1646037698720896800,4.169896728515625,-0.811579704284668,-1.1379499435424805,3.2432665824890137
1646037698730894300,4.179894287109375,-0.8059419393539429,-0.7797079086303711,3.2464094161987305
1646037698740892000,4.189891845703125,-0.737221896648407,-0.2692837715148926,3.282165050506592
1646037698750889500,4.199889404296875,-0.6674122214317322,0.17524003982543945,3.0818071365356445
1646037698760887000,4.209886962890625,-0.5086045861244202,0.47212648391723633,2.8027167320251465
1646037698770884600,4.219884521484375,-0.07746727019548416,0.8353290557861328,2.2423181533813477
1646037698780882200,4.229882080078125,0.3556115925312042,1.0803236961364746,1.6665277481079102
1646037698790879700,4.239879638671875,0.6126720905303955,1.1166529655456543,1.1840057373046875
1646037698800877300,4.249877197265625,0.7694985866546631,1.1056623458862305,0.8781223297119141
1646037698810875000,4.259875,0.544855535030365,1.0433664321899414,0.5418171882629395
1646037698820872400,4.26987255859375,0.21929143369197845,0.8129663467407227,0.42739343643188477
1646037698830870000,4.2798701171875,-0.30220434069633484,0.46985769271850586,0.37014007568359375
1646037698840867600,4.28986767578125,-0.9159375429153442,0.1141810417175293,0.35994529724121094
1646037698850865200,4.299865234375,-1.4962821006774902,-0.3837552070617676,0.4583902359008789
1646037698860862700,4.30986279296875,-2.175784111022949,-0.8757195472717285,0.6219549179077148
1646037698870860300,4.3198603515625,-2.8658483028411865,-1.1120662689208984,0.7119808197021484
1646037698880857900,4.32985791015625,-3.175417423248291,-1.3475050926208496,0.8708500862121582
1646037698890855400,4.33985546875,-3.437605857849121,-1.815657615661621,0.9557685852050781
1646037698900853000,4.34985302734375,-3.328871488571167,-1.9867959022521973,0.6851143836975098
1646037698910850600,4.3598505859375,-2.9373607635498047,-2.0146870613098145,0.22686386108398438
1646037698920848100,4.36984814453125,-2.6171703338623047,-2.127455711364746,-0.09855508804321289
1646037698930845700,4.379845703125,-2.117623805999756,-2.1230721473693848,-0.5299549102783203
1646037698940843300,4.38984326171875,-1.6769670248031616,-2.134491443634033,-0.8462128639221191
1646037698950840800,4.3998408203125,-1.1522719860076904,-2.245945930480957,-1.1725220680236816
1646037698960838400,4.40983837890625,-0.5124558210372925,-2.3265328407287598,-1.4644384384155273
1646037698970836000,4.4198359375,0.03771886229515076,-2.4329304695129395,-1.661750316619873
1646037698980833500,4.42983349609375,0.3047284185886383,-2.448970317840576,-1.7541847229003906
1646037698990831000,4.4398310546875,0.3959588408470154,-2.482089042663574,-1.7704510688781738
1646037699000828700,4.44982861328125,0.2882001996040344,-2.503234386444092,-1.7967348098754883
1646037699010826200,4.459826171875,-0.13125066459178925,-2.4626660346984863,-1.895796298980713
1646037699020823800,4.46982373046875,-0.6330029368400574,-2.4109954833984375,-1.9963102340698242
1646037699030821400,4.4798212890625,-1.1487258672714233,-2.374424457550049,-2.0552806854248047
1646037699040819000,4.48981884765625,-1.6196948289871216,-2.2758193016052246,-2.082153797149658
1646037699050816500,4.49981640625,-1.9564099311828613,-2.1921558380126953,-2.1682724952697754
1646037699060813800,4.509813720703125,-2.075294256210327,-2.141246795654297,-2.2937026023864746
1646037699070811400,4.519811279296875,-2.0709211826324463,-2.0998997688293457,-2.3270812034606934
1646037699080809000,4.52980908203125,-1.9697906970977783,-2.086620807647705,-2.3470358848571777
1646037699090806500,4.539806640625,-1.7456897497177124,-2.0850892066955566,-2.3443384170532227
1646037699100804000,4.54980419921875,-1.3992170095443726,-2.1077585220336914,-2.357624053955078
1646037699110801700,4.5598017578125,-1.0090076923370361,-2.092867851257324,-2.39212703704834
1646037699120799200,4.56979931640625,-0.7255112528800964,-2.0934839248657227,-2.4051361083984375
1646037699130796800,4.579796875,-0.5250110030174255,-2.1248879432678223,-2.4188718795776367
1646037699140794400,4.58979443359375,-0.3663005232810974,-2.1062707901000977,-2.4792280197143555
1646037699150792000,4.5997919921875,-0.29560285806655884,-2.0692601203918457,-2.526671886444092
1646037699160789500,4.60978955078125,-0.3280957043170929,-2.021360397338867,-2.5733470916748047
1646037699170787000,4.619787109375,-0.4041665196418762,-1.971865177154541,-2.6574597358703613
1646037699180784600,4.62978466796875,-0.4207369089126587,-1.9136581420898438,-2.7502970695495605
1646037699190782200,4.6397822265625,-0.4945126473903656,-1.8058323860168457,-2.993000030517578
1646037699200779800,4.64977978515625,-0.5454521179199219,-1.7219176292419434,-3.1576833724975586
1646037699210777300,4.65977734375,-0.47941285371780396,-1.6342477798461914,-3.377608299255371
1646037699220775000,4.66977490234375,-0.4015899896621704,-1.5634260177612305,-3.503652572631836
1646037699230772500,4.6797724609375,-0.26127755641937256,-1.6714015007019043,-3.5735654830932617
1646037699240770000,4.68977001953125,-0.1293761432170868,-1.6860418319702148,-3.569636344909668
1646037699250767600,4.699767578125,0.06525689363479614,-1.6931500434875488,-3.503469944000244
1646037699260765200,4.70976513671875,0.25989800691604614,-1.6977896690368652,-3.3272156715393066
1646037699270762800,4.7197626953125,0.4006281793117523,-1.7077593803405762,-3.129763126373291
1646037699280760300,4.72976025390625,0.5430803894996643,-1.6527962684631348,-2.969514846801758
1646037699290757600,4.739757568359375,0.5949033498764038,-1.5947723388671875,-2.847672462463379
1646037699300755200,4.749755126953125,0.6235212087631226,-1.5732784271240234,-2.7817811965942383
1646037699310752800,4.759752685546875,0.7343096733093262,-1.5139341354370117,-2.7357654571533203
1646037699320750300,4.769750244140625,0.8259638547897339,-1.483680248260498,-2.695168972015381
1646037699330748000,4.779747802734375,0.9478224515914917,-1.484954833984375,-2.603377342224121
1646037699340745500,4.789745361328125,1.1511425971984863,-1.452439785003662,-2.439807891845703
1646037699350743000,4.799742919921875,1.1579482555389404,-1.3863282203674316,-2.3936519622802734
1646037699360740600,4.80974072265625,1.0094645023345947,-1.9583463668823242,-1.5415563583374023
1646037699370738200,4.81973828125,0.7283340692520142,-2.660022735595703,-1.0409083366394043
1646037699380735700,4.82973583984375,0.40790149569511414,-3.0817346572875977,-0.8596034049987793
1646037699390733300,4.8397333984375,0.42050451040267944,-3.2909560203552246,-0.8540916442871094
1646037699400731000,4.84973095703125,0.38919952511787415,-3.3574581146240234,-0.9246416091918945
1646037699410728400,4.859728515625,0.41880685091018677,-3.4773330688476562,-0.8846545219421387
1646037699420726000,4.86972607421875,0.6185232400894165,-3.427462577819824,-0.8850607872009277
1646037699430723600,4.8797236328125,0.953351616859436,-3.2037601470947266,-0.9240798950195312
1646037699440721200,4.88972119140625,1.393752932548523,-3.0077528953552246,-0.6685800552368164
1646037699450718700,4.89971875,2.0684280395507812,-2.660247325897217,-0.37912702560424805
1646037699460716300,4.90971630859375,2.713796615600586,-1.9938850402832031,-0.49753236770629883
1646037699470713900,4.9197138671875,3.0171468257904053,-1.5863561630249023,-0.15558099746704102
1646037699480711200,4.929711181640625,3.32568359375,-1.3307409286499023,0.4115767478942871
1646037699490708700,4.939708740234375,3.549072742462158,-1.003542423248291,1.1334452629089355
1646037699500706300,4.949706298828125,3.633544921875,-0.7588281631469727,1.6639900207519531
1646037699510703900,4.959703857421875,3.5602996349334717,-0.6110100746154785,1.7572360038757324
1646037699520701400,4.969701416015625,3.423746109008789,-0.4202742576599121,1.4022607803344727
1646037699530699000,4.979698974609375,3.2057156562805176,-0.23911714553833008,0.6380887031555176
1646037699540696600,4.989696533203125,3.042698621749878,-0.19353628158569336,0.18306446075439453
1646037699550694100,4.999694091796875,2.9247379302978516,-0.21265792846679688,-0.06428956985473633
1646037699560691700,5.009691650390625,2.879857301712036,-0.2824687957763672,-0.053318023681640625
1646037699570689300,5.019689208984375,2.9276528358459473,-0.2526092529296875,-0.0012307167053222656
1646037699580686800,5.029686767578125,2.8777108192443848,-0.26221466064453125,0.16147279739379883
1646037699590684400,5.039684326171875,2.811328887939453,-0.26470327377319336,0.4095897674560547
1646037699600682000,5.049681884765625,2.7211854457855225,-0.24003267288208008,0.5942015647888184
1646037699610679600,5.059679443359375,2.5631589889526367,-0.14455699920654297,0.7065277099609375
1646037699620677000,5.069677001953125,2.4545364379882812,-0.01081228256225586,0.6564583778381348
1646037699630674700,5.0796748046875,2.402353286743164,0.1052398681640625,0.6273188591003418
1646037699640672300,5.08967236328125,2.3762502670288086,0.22749567031860352,0.4778885841369629
1646037699650669800,5.099669921875,2.427931547164917,0.3156867027282715,0.2682461738586426
1646037699660667400,5.10966748046875,2.5104732513427734,0.3518257141113281,0.11896038055419922
1646037699670665000,5.1196650390625,2.718055009841919,0.40453052520751953,-0.04284811019897461
1646037699680662500,5.12966259765625,2.9731178283691406,0.49392032623291016,-0.11340808868408203
1646037699690660000,5.13966015625,3.231839418411255,0.582855224609375,-0.13707304000854492
1646037699700657700,5.14965771484375,3.4639956951141357,0.7292494773864746,-0.08491373062133789
1646037699710655200,5.1596552734375,3.649817943572998,0.9591240882873535,-0.014863014221191406
1646037699720652800,5.16965283203125,3.5878405570983887,1.0639104843139648,0.056092262268066406
1646037699730650400,5.179650390625,3.5157008171081543,1.1328420639038086,0.18340492248535156
1646037699740648000,5.18964794921875,3.355820655822754,1.2790794372558594,0.2415761947631836
1646037699750645500,5.1996455078125,3.147284507751465,1.3652434349060059,0.32603883743286133
1646037699760643000,5.20964306640625,2.9320833683013916,1.4369139671325684,0.41326189041137695
1646037699770640600,5.219640625,2.7168195247650146,1.5014476776123047,0.5104656219482422
1646037699780638200,5.22963818359375,2.5110621452331543,1.5348567962646484,0.5960912704467773
1646037699790635800,5.2396357421875,2.1920197010040283,1.5251283645629883,0.6867237091064453
1646037699800633300,5.24963330078125,1.9682800769805908,1.534773349761963,0.7994875907897949
1646037699810631000,5.259630859375,1.8672380447387695,1.539896011352539,0.8843526840209961
1646037699820628500,5.26962841796875,1.8269234895706177,1.5095405578613281,0.9990320205688477
1646037699830626000,5.2796259765625,1.8521206378936768,1.4726786613464355,1.2204704284667969
1646037699840623600,5.28962353515625,1.938887119293213,1.4554314613342285,1.4216175079345703
1646037699850621200,5.29962109375,2.0158941745758057,1.5026330947875977,1.5203680992126465
1646037699860618800,5.30961865234375,2.05070161819458,1.590311050415039,1.6026339530944824
1646037699870616300,5.3196162109375,1.9510729312896729,1.618143081665039,1.7212085723876953
1646037699880614000,5.32961376953125,1.7930943965911865,1.6082983016967773,2.008446216583252
1646037699890611500,5.339611572265625,1.606196403503418,1.5869736671447754,2.2532949447631836
1646037699900609000,5.349609130859375,1.481820821762085,1.6133003234863281,2.414278507232666
1646037699910606300,5.3596064453125,1.3338205814361572,1.6100010871887207,2.6629257202148438
1646037699920604000,5.36960400390625,1.130936861038208,1.6435766220092773,2.8118343353271484
1646037699930601500,5.3796015625,0.9439064860343933,1.6175470352172852,2.9631290435791016
1646037699940599000,5.38959912109375,0.7923856973648071,1.608748435974121,3.19852876663208
1646037699950596600,5.3995966796875,0.6313334107398987,1.5571351051330566,3.371711254119873
1646037699960594200,5.40959423828125,0.5278033018112183,1.4574260711669922,3.4580955505371094
1646037699970591700,5.419591796875,0.44743096828460693,1.436612606048584,3.5821714401245117
1646037699980589300,5.42958935546875,0.22597360610961914,1.3200745582580566,3.849318504333496
1646037699990587000,5.4395869140625,-0.18956723809242249,1.1390252113342285,4.238071918487549
1646037700000584400,5.44958447265625,-0.7443290948867798,0.6586771011352539,4.713973045349121
1646037700010582000,5.45958203125,-1.3834195137023926,0.014904022216796875,5.0226521492004395
1646037700020579600,5.46957958984375,-1.641753911972046,-0.21393728256225586,4.949847221374512
1646037700030577200,5.4795771484375,-1.6010671854019165,0.03764057159423828,4.50637674331665
1646037700040574700,5.48957470703125,-1.6570546627044678,-0.3031172752380371,4.753543853759766
1646037700050572300,5.499572265625,-1.3684970140457153,0.07188224792480469,4.677955627441406
1646037700060569900,5.50956982421875,-1.0060855150222778,0.14855003356933594,4.737545490264893
1646037700070567400,5.5195673828125,-0.8631081581115723,0.03223848342895508,4.9344964027404785
1646037700080565000,5.52956494140625,-0.5796307325363159,0.13170433044433594,4.865612506866455
1646037700090562300,5.539562255859375,-0.12996122241020203,0.38545751571655273,4.591028690338135
1646037700100560000,5.549559814453125,0.36865130066871643,0.6224846839904785,4.3009562492370605
1646037700110557400,5.559557373046875,0.8305438756942749,0.8770046234130859,3.965019702911377
1646037700120555000,5.569554931640625,1.212239146232605,1.1634244918823242,3.5376219749450684
1646037700130552600,5.579552490234375,1.4874833822250366,1.5697779655456543,3.034191608428955
1646037700140550100,5.589550048828125,1.4173375368118286,1.8344368934631348,2.596519947052002
1646037700150547700,5.599547607421875,1.3314802646636963,2.009906768798828,2.0335140228271484
1646037700160545300,5.609545166015625,1.08578622341156,2.0409679412841797,1.5085420608520508
1646037700170542800,5.61954296875,0.7236911654472351,1.9041266441345215,1.09464693069458
1646037700180540400,5.62954052734375,0.4775840640068054,1.5783882141113281,0.7091379165649414
1646037700190538000,5.6395380859375,0.39296120405197144,1.2560176849365234,0.3506350517272949
1646037700200535600,5.64953564453125,0.38319137692451477,1.018979549407959,0.08915233612060547
1646037700210533000,5.659533203125,0.03280468285083771,0.7816667556762695,-0.18974924087524414
1646037700220530700,5.66953076171875,-0.5304155349731445,0.45656299591064453,-0.2526545524597168
1646037700230528300,5.6795283203125,-0.9976390600204468,0.2670259475708008,-0.5706782341003418
1646037700240525800,5.68952587890625,-1.6288893222808838,0.08896350860595703,-1.126640796661377
1646037700250523400,5.6995234375,-2.3006176948547363,-0.21727514266967773,-1.2512903213500977
1646037700260521000,5.70952099609375,-2.392573118209839,-0.3592400550842285,-1.178246021270752
1646037700270518500,5.7195185546875,-2.171048879623413,-0.3672761917114258,-0.9989910125732422
1646037700280516000,5.72951611328125,-1.7453609704971313,-0.5294089317321777,-0.3462033271789551
1646037700290513700,5.739513671875,-1.1491655111312866,-0.6736679077148438,0.2272205352783203
1646037700300511200,5.74951123046875,-0.4622657895088196,-0.7338647842407227,0.738459587097168
1646037700310508800,5.7595087890625,0.22479675710201263,-0.7710795402526855,1.1779756546020508
1646037700320506000,5.769506103515625,0.5463143587112427,-0.8476748466491699,1.2975573539733887
1646037700330503700,5.779503662109375,0.9095190167427063,-0.819800853729248,1.2273144721984863
1646037700340501200,5.789501220703125,1.218587875366211,-0.8506894111633301,1.1131668090820312
1646037700350498800,5.799498779296875,1.4022374153137207,-0.9489011764526367,0.8364419937133789
1646037700360496400,5.809496337890625,1.490429162979126,-1.05320405960083,0.4965548515319824
1646037700370494000,5.819493896484375,1.513034701347351,-1.0924067497253418,0.0040035247802734375
1646037700380491500,5.829491455078125,1.5171482563018799,-1.2360758781433105,-0.27498340606689453
1646037700390489000,5.839489013671875,1.5177998542785645,-1.3524584770202637,-0.5419769287109375
1646037700400486700,5.849486572265625,1.4878168106079102,-1.407486915588379,-0.7870688438415527
1646037700410484200,5.859484130859375,1.3782408237457275,-1.4844493865966797,-1.0198378562927246
1646037700420481800,5.869481689453125,1.2661933898925781,-1.5673484802246094,-1.2504262924194336
1646037700430479400,5.879479248046875,1.2310575246810913,-1.6185059547424316,-1.5055928230285645
1646037700440477000,5.889476806640625,1.2129019498825073,-1.6405730247497559,-1.7352008819580078
1646037700450474500,5.899474609375,1.1378570795059204,-1.7408356666564941,-2.032351493835449
1646037700460472000,5.90947216796875,1.107884407043457,-1.7768821716308594,-2.2862167358398438
1646037700470469600,5.9194697265625,1.058619499206543,-1.7765889167785645,-2.5514445304870605
1646037700480467200,5.92946728515625,0.9773184061050415,-1.7585177421569824,-2.8732094764709473
1646037700490464800,5.93946484375,0.8034671545028687,-1.8005075454711914,-3.186397075653076
1646037700500462000,5.949462158203125,0.5789802074432373,-1.9120187759399414,-3.3914904594421387
1646037700510459600,5.959459716796875,0.5597760677337646,-1.9617633819580078,-3.480283260345459
1646037700520457200,5.969457275390625,0.5475348830223083,-1.980910301208496,-3.5942769050598145
1646037700530454800,5.979454833984375,0.5316526293754578,-1.9835844039916992,-3.674612045288086
1646037700540452400,5.989452392578125,0.3957217037677765,-2.0084786415100098,-3.675281047821045
1646037700550450000,5.999449951171875,0.25387173891067505,-2.1369094848632812,-3.637065887451172
1646037700560447700,6.00944775390625,0.23286139965057373,-2.201887607574463,-3.6729235649108887
1646037700570445300,6.0194453125,0.11435454338788986,-2.30686092376709,-3.6419143676757812
1646037700580443000,6.02944287109375,0.03519311547279358,-2.4659266471862793,-3.503182888031006
1646037700590440200,6.039440185546875,0.08609006553888321,-2.5403342247009277,-3.462649345397949
1646037700600437800,6.049437744140625,0.17246684432029724,-2.6072988510131836,-3.4200220108032227
1646037700610435300,6.059435302734375,0.2687205672264099,-2.6308774948120117,-3.3392515182495117
1646037700620433000,6.069432861328125,0.29759442806243896,-2.642444133758545,-3.270697593688965
1646037700630430500,6.079430419921875,0.38809865713119507,-2.5867462158203125,-3.1566247940063477
1646037700640428000,6.089427978515625,0.4307126998901367,-2.6464524269104004,-2.9565882682800293
1646037700650425600,6.099425537109375,0.14863069355487823,-3.1690917015075684,-2.390516757965088
1646037700660423200,6.109423095703125,-0.21903854608535767,-3.7733635902404785,-1.8464856147766113
1646037700670420700,6.119420654296875,-0.5518343448638916,-4.253211975097656,-1.5347371101379395
1646037700680418300,6.129418212890625,-0.6858956813812256,-4.207961082458496,-1.5566844940185547
1646037700690415900,6.139415771484375,-0.6473503112792969,-3.9669675827026367,-1.5309467315673828
1646037700700413400,6.149413330078125,-0.5561890602111816,-3.5422935485839844,-1.4318265914916992
1646037700710411000,6.159410888671875,-0.5865870714187622,-3.2243990898132324,-1.3865485191345215
1646037700720408600,6.16940869140625,-0.6440539956092834,-2.880398750305176,-1.443636417388916
1646037700730406100,6.17940625,-0.36722224950790405,-2.2629218101501465,-1.6071596145629883
1646037700740403700,6.18940380859375,0.015528112649917603,-1.7337756156921387,-1.6215863227844238
1646037700750401300,6.1994013671875,0.5751789808273315,-1.1606769561767578,-1.4861745834350586
1646037700760398800,6.20939892578125,0.9470174312591553,-0.6596498489379883,-1.3788237571716309
1646037700770396400,6.219396484375,1.2163286209106445,-0.28568267822265625,-1.1504602432250977
1646037700780394000,6.22939404296875,1.2027919292449951,-0.051489830017089844,-0.8969936370849609
1646037700790391600,6.2393916015625,1.144376277923584,0.046337127685546875,-0.7436776161193848
1646037700800389000,6.24938916015625,1.0879669189453125,0.12633562088012695,-0.7151260375976562
1646037700810386700,6.25938671875,1.118053674697876,0.23885440826416016,-0.7999005317687988
1646037700820384300,6.26938427734375,1.110613465309143,0.35081958770751953,-0.8185572624206543
1646037700830381800,6.2793818359375,0.8469607830047607,0.37399816513061523,-0.649132251739502
1646037700840379400,6.28937939453125,0.464171826839447,0.38628435134887695,-0.4771609306335449
1646037700850377000,6.299376953125,-0.08778703212738037,0.34987926483154297,-0.2208390235900879
1646037700860374300,6.309374267578125,-0.46283379197120667,0.42787837982177734,-0.02826213836669922
1646037700870371800,6.319371826171875,-0.8452131748199463,0.45045948028564453,0.2157430648803711
1646037700880369400,6.329369384765625,-1.122726321220398,0.45818090438842773,0.530153751373291
1646037700890367000,6.339366943359375,-1.1941198110580444,0.4687962532043457,0.7459030151367188
1646037700900364500,6.349364501953125,-1.1619082689285278,0.4518013000488281,0.8466415405273438
1646037700910362000,6.359362060546875,-1.0290253162384033,0.49501752853393555,0.8672652244567871
1646037700920359700,6.369359619140625,-0.849538266658783,0.45973825454711914,0.9226365089416504
1646037700930357200,6.379357177734375,-0.6131011247634888,0.46905946731567383,0.9561281204223633
1646037700940354800,6.389354736328125,-0.35094666481018066,0.48145055770874023,1.0483922958374023
1646037700950352400,6.399352294921875,-0.16289420425891876,0.5885014533996582,1.1090426445007324
1646037700960350000,6.409349853515625,-0.02369922399520874,0.7232666015625,1.2266907691955566
1646037700970347500,6.419347412109375,0.10924187302589417,0.8996710777282715,1.2689805030822754
1646037700980345000,6.429344970703125,0.19643114507198334,1.071190357208252,1.3209033012390137
1646037700990342700,6.4393427734375,0.2960103452205658,1.246734619140625,1.3599367141723633
1646037701000340200,6.44934033203125,0.3384877145290375,1.4208440780639648,1.3228378295898438
1646037701010337800,6.459337890625,0.4557569622993469,1.555272102355957,1.235872745513916
1646037701020335400,6.46933544921875,0.505379319190979,1.660449504852295,1.1262869834899902
1646037701030333000,6.4793330078125,0.553035318851471,1.811610221862793,1.0576186180114746
1646037701040330500,6.48933056640625,0.553260087966919,1.8851346969604492,1.0788288116455078
1646037701050328000,6.499328125,0.5204852819442749,2.0418777465820312,1.1401910781860352
1646037701060325600,6.50932568359375,0.4163890779018402,2.144953727722168,1.238814353942871
1646037701070323200,6.5193232421875,0.22865408658981323,2.304133415222168,1.3310012817382812
1646037701080320800,6.52932080078125,0.029799431562423706,2.3869290351867676,1.4492216110229492
1646037701090318300,6.539318359375,-0.25844359397888184,2.4556236267089844,1.607879638671875
1646037701100315600,6.549315673828125,-0.4337705075740814,2.4690470695495605,1.6889629364013672
1646037701110313200,6.559313232421875,-0.6693097352981567,2.481884002685547,1.7254056930541992
1646037701120310800,6.569310791015625,-0.8084866404533386,2.4585232734680176,1.8733248710632324
1646037701130308400,6.579308349609375,-0.8711579442024231,2.420651912689209,1.9892077445983887
1646037701140306000,6.589305908203125,-0.7722411155700684,2.32535982131958,2.1738314628601074
1646037701150303500,6.599303466796875,-0.5670207738876343,2.225308895111084,2.422412872314453
1646037701160301000,6.609301025390625,-0.32616937160491943,2.1680355072021484,2.5596871376037598
1646037701170298600,6.619298583984375,-0.3012990951538086,2.1652307510375977,2.556549549102783
1646037701180296200,6.629296142578125,-0.0867597758769989,2.01353120803833,2.7650413513183594
1646037701190293800,6.639293701171875,0.19448146224021912,1.8510184288024902,2.8775463104248047
1646037701200291300,6.649291259765625,0.3947179317474365,1.6710867881774902,2.910637855529785
1646037701210289000,6.659288818359375,0.5274343490600586,1.471684455871582,2.939894676208496
1646037701220286500,6.669286376953125,0.7077406644821167,1.2099213600158691,2.987271308898926
1646037701230284000,6.679283935546875,0.8547850251197815,0.9054374694824219,3.060624599456787
1646037701240281600,6.689281494140625,0.8986115455627441,0.8294548988342285,3.1321487426757812
1646037701250279200,6.699279052734375,0.8866994380950928,0.7113437652587891,3.283212661743164
1646037701260276700,6.70927685546875,0.7498461604118347,0.5455889701843262,3.42672061920166
1646037701270274300,6.7192744140625,0.4793556034564972,-0.0015006065368652344,3.6885461807250977
1646037701280271600,6.729271728515625,0.14247137308120728,-0.8726263046264648,4.107020378112793
1646037701290269200,6.739269287109375,-0.13674795627593994,-1.7473688125610352,4.188538074493408
1646037701300266800,6.749266845703125,-0.28795427083969116,-2.60498046875,4.078507423400879
1646037701310264300,6.759264404296875,-0.10848535597324371,-2.5238494873046875,3.5428409576416016
1646037701320262000,6.769261962890625,0.5267594456672668,-2.1710290908813477,3.143618106842041
1646037701330259500,6.779259521484375,0.8289968967437744,-1.8248252868652344,3.3604888916015625
1646037701340257000,6.789257080078125,0.9091050028800964,-1.510408878326416,3.623960494995117
1646037701350254600,6.799254638671875,0.9872532486915588,-1.066986083984375,3.8710312843322754
1646037701360252200,6.809252197265625,1.0258920192718506,-0.603614330291748,3.833456516265869
1646037701370249700,6.819249755859375,1.1265592575073242,-0.1060328483581543,3.4218649864196777
1646037701380247300,6.829247314453125,1.3551545143127441,0.39678192138671875,2.734142303466797
1646037701390244900,6.839244873046875,1.5918185710906982,0.7802824974060059,1.8211517333984375
1646037701400242400,6.849242431640625,1.6264233589172363,0.9474849700927734,1.1279425621032715
1646037701410240000,6.859239990234375,1.4215694665908813,0.9056200981140137,0.5167636871337891
1646037701420237600,6.869237548828125,0.9908163547515869,0.7008390426635742,0.12807464599609375
1646037701430235100,6.879235107421875,0.5221647024154663,0.4072728157043457,-0.10963582992553711
1646037701440232700,6.889232666015625,0.13715405762195587,0.07097005844116211,-0.29163646697998047
1646037701450230300,6.899230224609375,-0.31606677174568176,-0.38276100158691406,-0.43766307830810547
1646037701460227800,6.909227783203125,-0.6827321648597717,-0.6284608840942383,-0.5767765045166016
1646037701470225400,6.919225341796875,-1.0267658233642578,-0.7976040840148926,-0.608457088470459
1646037701480223000,6.929222900390625,-1.4646260738372803,-1.0310783386230469,-0.5708403587341309
1646037701490220500,6.939220458984375,-1.6935020685195923,-1.2270078659057617,-0.513267993927002
1646037701500218000,6.949218017578125,-1.7616932392120361,-1.4639153480529785,-0.5048828125
1646037701510215700,6.959215576171875,-1.5213171243667603,-1.6860275268554688,-0.6170797348022461
1646037701520213000,6.969212890625,-1.1744890213012695,-1.945950984954834,-0.7323818206787109
1646037701530210800,6.9792109375,-0.859860897064209,-2.1575722694396973,-0.9203901290893555
1646037701540208000,6.9892080078125,-0.41143178939819336,-2.217897891998291,-1.0926036834716797
1646037701550205700,6.999205810546875,0.0009635090827941895,-2.241705894470215,-1.0628056526184082
1646037701560203300,7.009203369140625,0.08195962011814117,-2.3018956184387207,-0.918856143951416
1646037701570200800,7.019200927734375,-0.008270256221294403,-2.285487174987793,-0.8612923622131348
1646037701580198400,7.029198486328125,-0.13975603878498077,-2.2434473037719727,-0.9236912727355957
1646037701590196200,7.0391962890625,-0.19841676950454712,-2.175626754760742,-1.150857925415039
1646037701600193800,7.04919384765625,-0.1947070211172104,-2.1319503784179688,-1.5746164321899414
1646037701610191000,7.059191162109375,-0.014859132468700409,-2.0432229042053223,-2.155066967010498
1646037701620188700,7.069188720703125,0.20048311352729797,-2.000250816345215,-2.6486053466796875
1646037701630186200,7.079186279296875,0.41738665103912354,-1.956571102142334,-3.0841622352600098
1646037701640183800,7.089183837890625,0.5461438894271851,-1.871081829071045,-3.378628730773926
1646037701650181400,7.099181396484375,0.564703643321991,-1.77555513381958,-3.6388802528381348
1646037701660179000,7.109178955078125,0.4548635482788086,-1.6858997344970703,-3.838233470916748
1646037701670176500,7.119176513671875,0.2609695792198181,-1.565713882446289,-3.978940010070801
1646037701680174000,7.129174072265625,-0.13092370331287384,-1.5128660202026367,-3.998753070831299
1646037701690171600,7.139171630859375,-0.5431801080703735,-1.426809310913086,-3.9721240997314453
1646037701700169200,7.149169189453125,-0.8537505269050598,-1.432807445526123,-3.9163122177124023
1646037701710166800,7.159166748046875,-1.1337220668792725,-1.3014655113220215,-3.9490199089050293
1646037701720164400,7.169164306640625,-1.1808676719665527,-1.279432773590088,-3.9635205268859863
1646037701730162000,7.179161865234375,-1.1150398254394531,-1.2523093223571777,-3.9423985481262207
1646037701740159500,7.189159423828125,-0.9078786373138428,-1.2251687049865723,-3.9025564193725586
1646037701750157000,7.199156982421875,-0.4970371723175049,-1.2912588119506836,-3.776740074157715
1646037701760154600,7.209154541015625,-0.1864553987979889,-1.3697457313537598,-3.6082587242126465
1646037701770152200,7.219152099609375,0.09576273709535599,-1.4332952499389648,-3.5079283714294434
1646037701780149800,7.229149658203125,0.3548898696899414,-1.4138336181640625,-3.447805404663086
1646037701790147300,7.239147216796875,0.4856311082839966,-1.419377326965332,-3.3584933280944824
1646037701800145000,7.249144775390625,0.5337734818458557,-1.3608613014221191,-3.328202724456787
1646037701810142500,7.259142578125,0.5647270083427429,-1.1861701011657715,-3.3835296630859375
1646037701820140000,7.26914013671875,0.6145296692848206,-1.060060977935791,-3.3205270767211914
1646037701830137600,7.2791376953125,0.5968899726867676,-0.9387807846069336,-3.169773578643799
1646037701840135200,7.28913525390625,0.5279335379600525,-0.8154745101928711,-3.058187961578369
1646037701850132700,7.2991328125,0.5695293545722961,-0.6743268966674805,-2.885693073272705
1646037701860130300,7.30913037109375,0.6210699677467346,-0.6026515960693359,-2.6888842582702637
1646037701870127900,7.3191279296875,0.6230052709579468,-0.6494712829589844,-2.4044408798217773
1646037701880125200,7.329125244140625,0.5936537981033325,-0.748894214630127,-2.15936279296875
1646037701890122800,7.339122802734375,0.49719297885894775,-0.8539142608642578,-1.963876724243164
1646037701900153900,7.34915380859375,0.2623651623725891,-1.0291461944580078,-1.7581539154052734
1646037701910184700,7.359184814453125,0.11042854189872742,-1.0984039306640625,-1.5529732704162598
1646037701920215600,7.369215576171875,-0.040395721793174744,-1.0730485916137695,-1.3118886947631836
1646037701930246400,7.379246337890625,-0.2712762653827667,-1.0894031524658203,-0.9987072944641113
1646037701940277200,7.38927734375,-0.394914835691452,-1.1240105628967285,-0.661651611328125
1646037701950308400,7.399308349609375,-0.5347341895103455,-1.3811235427856445,-0.13580989837646484
1646037701960339200,7.409339111328125,-0.7119985818862915,-2.1058096885681152,0.4654679298400879
1646037701970370000,7.4193701171875,-0.7335523962974548,-2.7344441413879395,0.7097506523132324
1646037701980401000,7.42940087890625,-0.5017545223236084,-3.1875362396240234,0.6763820648193359
1646037701990431700,7.439431640625,-0.08037542551755905,-3.509591579437256,0.5169453620910645
1646037702000462600,7.449462646484375,0.2797676920890808,-3.5049867630004883,0.48451662063598633
1646037702010493700,7.45949365234375,0.6709584593772888,-3.281437397003174,0.5436253547668457
1646037702020524500,7.469524658203125,1.0774236917495728,-3.010806083679199,0.9083948135375977
1646037702030555400,7.479555419921875,1.4631974697113037,-2.6515860557556152,1.0772476196289062
1646037702040586200,7.489586181640625,1.8822730779647827,-2.422757625579834,1.2263484001159668
1646037702050617000,7.4996171875,2.4800877571105957,-2.127267360687256,1.2723932266235352
1646037702060648000,7.50964794921875,2.7651546001434326,-1.7350921630859375,1.1828203201293945
1646037702070678800,7.5196787109375,3.014566421508789,-1.495567798614502,1.2920632362365723
1646037702080710000,7.5297099609375,2.910266160964966,-1.0229196548461914,1.3440213203430176
1646037702090740700,7.53974072265625,2.1936235427856445,-0.02246713638305664,1.3411808013916016
1646037702100771600,7.549771484375,1.2203446626663208,0.7788124084472656,1.6892924308776855
1646037702110802400,7.559802490234375,0.1801428645849228,1.4706902503967285,2.195911407470703
1646037702120833300,7.569833251953125,-0.3151744604110718,1.8905320167541504,2.351916790008545
1646037702130864000,7.579864013671875,-0.46932369470596313,2.1790380477905273,2.2213077545166016
1646037702140895000,7.58989501953125,-0.3541974723339081,2.3026700019836426,2.006343364715576
1646037702150925800,7.59992578125,-0.0398411750793457,2.2407379150390625,1.8733210563659668
1646037702160956700,7.609956787109375,0.35235869884490967,2.1640353202819824,1.7853474617004395
1646037702170987800,7.61998779296875,0.5933594107627869,1.9865632057189941,1.88450288772583
1646037702180985300,7.6299853515625,0.6445615887641907,1.865389347076416,2.0193991661071777
1646037702190982700,7.639982666015625,0.5891135931015015,1.7624316215515137,2.209367275238037
1646037702200947000,7.649947021484375,0.35870295763015747,1.6795125007629395,2.3865036964416504
1646037702210911200,7.6599111328125,0.05861513316631317,1.5631508827209473,2.54721736907959
1646037702220875300,7.669875244140625,-0.29315343499183655,1.4151029586791992,2.5731592178344727
1646037702230839600,7.679839599609375,-0.4410487413406372,1.300062656402588,2.4765396118164062
1646037702240803800,7.689803955078125,-0.44232177734375,1.153975486755371,2.3324356079101562
1646037702250768100,7.69976806640625,-0.20557036995887756,1.0184335708618164,2.1160221099853516
1646037702260732400,7.709732421875,0.2349458634853363,0.8949618339538574,1.9301681518554688
1646037702270696400,7.719696533203125,0.7745189666748047,0.7607932090759277,1.8891491889953613
1646037702280660700,7.72966064453125,1.2428555488586426,0.7756943702697754,1.7821812629699707
1646037702290625000,7.739625,1.7175525426864624,0.894017219543457,1.6948070526123047
1646037702300589300,7.74958935546875,1.9380314350128174,1.0009145736694336,1.6244258880615234
1646037702310553300,7.75955322265625,2.1467647552490234,1.1629118919372559,1.5269479751586914
1646037702320517600,7.769517578125,2.0625991821289062,1.400857925415039,1.3964977264404297
1646037702330482000,7.77948193359375,1.6467304229736328,1.5705933570861816,1.2468576431274414
1646037702340446200,7.7894462890625,1.317136526107788,1.677086353302002,1.1144261360168457
1646037702350410500,7.799410400390625,0.8721602559089661,1.8493385314941406,0.9394960403442383
1646037702360374500,7.80937451171875,0.5688153505325317,1.93162202835083,0.8301124572753906
1646037702370338800,7.8193388671875,0.28746700286865234,2.0128579139709473,0.7318367958068848
1646037702380303000,7.82930322265625,0.031043067574501038,2.0744919776916504,0.6718645095825195
1646037702390267400,7.839267333984375,-0.2707844376564026,2.171420097351074,0.5877408981323242
1646037702400231400,7.8492314453125,-0.5208075642585754,2.1717848777770996,0.5653533935546875
1646037702410195700,7.85919580078125,-0.8385570049285889,2.109710216522217,0.5672159194946289
1646037702420160000,7.869159912109375,-0.9958981871604919,2.076122283935547,0.5595836639404297
1646037702430124300,7.879124267578125,-1.1890032291412354,2.066187858581543,0.48974037170410156
1646037702440088600,7.889088623046875,-1.2515965700149536,2.0127453804016113,0.3932976722717285
1646037702450052900,7.899052978515625,-1.1805754899978638,1.829629898071289,0.31093358993530273
1646037702460017000,7.909016845703125,-1.0841064453125,1.61590576171875,0.2318711280822754
1646037702469981200,7.918981201171875,-0.8541856408119202,1.4399900436401367,0.19849824905395508
1646037702479978800,7.928978759765625,-0.645179808139801,1.3339123725891113,0.226318359375
1646037702489976300,7.938976318359375,-0.310759037733078,1.2586278915405273,0.28623342514038086
1646037702499974000,7.948973876953125,-0.09949176758527756,1.216972827911377,0.443450927734375
1646037702509971500,7.958971435546875,0.06308481842279434,1.1486334800720215,0.699711799621582
1646037702519969000,7.968968994140625,0.2113858461380005,1.138615608215332,0.9529390335083008
1646037702529966600,7.978966552734375,0.2842053771018982,1.0297493934631348,1.2131423950195312
1646037702539964200,7.988964111328125,0.2942127287387848,0.9140210151672363,1.3923344612121582
1646037702549961700,7.998961669921875,0.27484330534935,0.8430705070495605,1.6352810859680176
1646037702559959300,8.008959228515625,0.12618425488471985,0.7974944114685059,1.905738353729248
1646037702569956900,8.018956787109374,-0.04763218015432358,0.7602362632751465,2.1889772415161133
1646037702579954400,8.028954345703125,-0.05584617331624031,0.7567448616027832,2.1845932006835938
1646037702589952000,8.038951904296875,-0.39729902148246765,0.8293213844299316,2.717581272125244
1646037702599949600,8.048949462890626,-0.5112844705581665,0.8265681266784668,2.855912208557129
1646037702609947100,8.058947021484375,-0.6278939843177795,0.8170185089111328,2.8953704833984375
1646037702619944700,8.06894482421875,-0.6302446722984314,0.8119730949401855,2.775339126586914
1646037702629942300,8.0789423828125,-0.6444708704948425,0.7421717643737793,2.6829190254211426
1646037702639939800,8.08893994140625,-0.7575685381889343,0.326138973236084,2.722508430480957
1646037702649937200,8.098937255859376,-0.8529729247093201,-0.5328230857849121,2.9750280380249023
1646037702659934700,8.108934814453125,-0.8689588308334351,-0.9483070373535156,2.940797805786133
1646037702669932300,8.118932373046874,-0.644707441329956,-0.85089111328125,2.530747890472412
1646037702679929900,8.128929931640625,-0.7998455166816711,-1.5507874488830566,2.985513687133789
1646037702689927400,8.138927490234375,-0.7958511710166931,-1.2570242881774902,2.7755722999572754
1646037702699925000,8.148925048828126,-0.5107606649398804,-0.97784423828125,2.6495800018310547
1646037702709922600,8.158922607421875,-0.4712075889110565,-0.8450484275817871,2.662513256072998
1646037702719920000,8.168920166015624,-0.3842012882232666,-0.6990017890930176,2.5620956420898438
1646037702729917700,8.178917724609375,-0.07651011645793915,-0.49095964431762695,2.282074451446533
1646037702739915300,8.188915283203125,0.15939854085445404,-0.3005857467651367,1.9294977188110352
1646037702749912800,8.198912841796876,0.5920979976654053,-0.1541585922241211,1.576411247253418
1646037702759910400,8.208910400390625,0.9066855311393738,0.04016923904418945,1.197479248046875
1646037702769908000,8.218907958984374,1.1633130311965942,0.36099672317504883,0.8068962097167969
1646037702779905500,8.228905517578125,1.218763828277588,0.5642175674438477,0.5821652412414551
1646037702789903000,8.238903076171875,1.0256260633468628,0.5896635055541992,0.441892147064209
1646037702799900700,8.248900634765626,0.6518344283103943,0.4417243003845215,0.34050512313842773
1646037702809898200,8.258898193359375,0.11896175146102905,0.18100738525390625,0.31009483337402344
1646037702819895800,8.268895751953124,-0.563980221748352,-0.2911953926086426,0.32863616943359375
1646037702829893400,8.278893310546875,-1.1321126222610474,-0.7115087509155273,0.30992650985717773
1646037702839891000,8.288890869140625,-1.5885688066482544,-1.0128660202026367,0.23233509063720703
1646037702849888500,8.298888427734376,-2.09608793258667,-1.2539124488830566,0.13512277603149414
1646037702859886000,8.308885986328125,-2.398940086364746,-1.4436779022216797,0.0997772216796875
1646037702869883600,8.318883544921874,-2.507345199584961,-1.641810417175293,0.0711216926574707
1646037702879881000,8.328880859375,-2.5043108463287354,-1.8371734619140625,-0.004581451416015625
1646037702889878500,8.33887841796875,-2.331578254699707,-1.9861469268798828,-0.18179035186767578
1646037702899876000,8.3488759765625,-2.0815439224243164,-2.061605930328369,-0.5261383056640625
1646037702909873700,8.358873779296875,-1.7391142845153809,-2.126115322113037,-0.8580546379089355
1646037702919871200,8.368871337890624,-1.2806135416030884,-2.083897590637207,-1.183098316192627
1646037702929868800,8.378868896484375,-0.8846540451049805,-2.015254020690918,-1.4528050422668457
1646037702939866400,8.388866455078125,-0.5581738352775574,-1.899587631225586,-1.6878819465637207
1646037702949864000,8.398864013671876,-0.3462180197238922,-1.8058748245239258,-1.894848346710205
1646037702959861500,8.408861572265625,-0.34345337748527527,-1.760650634765625,-2.0453109741210938
1646037702969859000,8.418859130859374,-0.37607234716415405,-1.7327461242675781,-2.151432514190674
1646037702979856600,8.428856689453125,-0.3926222622394562,-1.7294683456420898,-2.170370101928711
1646037702989854200,8.438854248046875,-0.3579680323600769,-1.7216339111328125,-2.133063316345215
1646037702999851800,8.448851806640626,-0.36425819993019104,-1.6532201766967773,-2.2489209175109863
1646037703009849300,8.458849365234375,-0.3504622280597687,-1.7787151336669922,-2.0970921516418457
1646037703019847000,8.468846923828124,-0.347817599773407,-1.8386998176574707,-2.1223678588867188
1646037703029844500,8.478844482421875,-0.32609328627586365,-1.896428108215332,-2.1075901985168457
1646037703039842000,8.488842041015625,-0.25722330808639526,-1.9968194961547852,-2.050004005432129
1646037703049839600,8.498839599609376,-0.10076156258583069,-2.143421173095703,-1.9703612327575684
1646037703059837200,8.508837158203125,0.07122939825057983,-2.092383861541748,-2.088408946990967
1646037703069834800,8.518834716796874,0.24254882335662842,-2.108828067779541,-2.188289165496826
1646037703079832000,8.52883203125,0.3308853507041931,-2.1398568153381348,-2.277080535888672
1646037703089829600,8.53882958984375,0.4641769528388977,-2.1176095008850098,-2.390228271484375
1646037703099827200,8.5488271484375,0.5437924861907959,-2.0459799766540527,-2.5439834594726562
1646037703109824800,8.55882470703125,0.6110343337059021,-1.936753273010254,-2.6999716758728027
1646037703119822300,8.568822265625,0.6154637932777405,-1.8420796394348145,-2.817155361175537
1646037703129820000,8.57881982421875,0.6407278776168823,-1.7636661529541016,-2.8855409622192383
1646037703139817500,8.5888173828125,0.6100904941558838,-1.6897573471069336,-2.9674596786499023
1646037703149815000,8.59881494140625,0.385495126247406,-1.5631093978881836,-2.974465847015381
1646037703159812600,8.6088125,0.15442374348640442,-1.4487075805664062,-2.9449901580810547
1646037703169810200,8.61881005859375,-0.1037648394703865,-1.2828965187072754,-3.0495986938476562
1646037703179807700,8.628807861328125,-0.28448358178138733,-1.1641039848327637,-3.250063419342041
1646037703189805300,8.638805419921875,-0.3651549220085144,-1.0799102783203125,-3.5962414741516113
1646037703199803000,8.648802978515626,-0.36471062898635864,-0.9997811317443848,-3.7707176208496094
1646037703209800400,8.658800537109375,-0.41166001558303833,-0.9303526878356934,-3.9013733863830566
1646037703219798000,8.668798095703124,-0.42333802580833435,-0.8976655006408691,-3.910505771636963
1646037703229795600,8.678795654296875,-0.44125500321388245,-0.8512687683105469,-3.841001033782959
1646037703239793200,8.688793212890625,-0.4318588376045227,-0.7994623184204102,-3.734344005584717
1646037703249790700,8.698790771484376,-0.44355493783950806,-0.7649602890014648,-3.485936164855957
1646037703259788300,8.708788330078125,-0.5132995247840881,-0.708531379699707,-3.302664279937744
1646037703269785900,8.718785888671874,-0.5712467432022095,-0.6552529335021973,-3.0558910369873047
1646037703279783400,8.728783447265625,-0.5753411650657654,-0.6130032539367676,-2.8129262924194336
1646037703289781000,8.738781005859375,-0.42742669582366943,-0.6161727905273438,-2.4879016876220703
1646037703299778600,8.748778564453126,-0.25931569933891296,-0.6561274528503418,-2.169743537902832
1646037703309776100,8.758776123046875,-0.006288215517997742,-0.7051830291748047,-1.8734025955200195
1646037703319773700,8.768773681640624,0.17784737050533295,-0.7307448387145996,-1.6472721099853516
1646037703329771000,8.77877099609375,0.2744903266429901,-0.8886942863464355,-1.340630054473877
1646037703339768600,8.7887685546875,0.295177698135376,-1.1533489227294922,-0.9207172393798828
1646037703349766100,8.79876611328125,0.32079583406448364,-1.7621345520019531,-0.39713335037231445
1646037703359763700,8.808763671875,0.0958213359117508,-2.3686280250549316,0.12163972854614258
1646037703369761300,8.81876123046875,0.08319485187530518,-2.8789939880371094,0.5210847854614258
1646037703379759000,8.828759033203125,0.22813525795936584,-3.041313648223877,0.703559398651123
1646037703389756700,8.838756591796875,0.5422636866569519,-3.0885214805603027,0.8864731788635254
1646037703399754000,8.84875390625,0.9019257426261902,-3.127408504486084,1.2579121589660645
1646037703409751600,8.85875146484375,1.3416390419006348,-3.1558079719543457,1.6721978187561035
1646037703419749000,8.8687490234375,2.101907730102539,-2.9976963996887207,2.037625789642334
1646037703429746700,8.87874658203125,2.6442055702209473,-2.441883087158203,2.187096118927002
1646037703439744300,8.888744140625,3.2026801109313965,-1.980475902557373,2.245553493499756
1646037703449741800,8.898741943359376,3.6967570781707764,-1.459571361541748,2.454503059387207
1646037703459739400,8.908739501953125,4.223399639129639,-0.9243655204772949,2.614809036254883
1646037703469737000,8.918737060546874,4.564230918884277,-0.346127986907959,2.6568918228149414
1646037703479734500,8.928734619140625,4.687976837158203,0.209716796875,2.5980920791625977
1646037703489732000,8.938732177734375,4.664797782897949,0.4659423828125,2.6865367889404297
1646037703499729700,8.948729736328126,4.571666240692139,0.5864009857177734,2.7691941261291504
1646037703509727200,8.958727294921875,4.441130638122559,0.8209190368652344,2.602278709411621
1646037703519724800,8.968724853515624,4.12648868560791,1.0395903587341309,2.2643418312072754
1646037703529722400,8.978722412109375,3.7665395736694336,1.0763325691223145,2.052067279815674
1646037703539720000,8.988719970703125,3.3859663009643555,1.1866507530212402,1.88685941696167
1646037703549717500,8.998717529296876,2.8417043685913086,1.2421979904174805,1.7611966133117676
1646037703559715000,9.008715087890625,2.398542881011963,1.2009220123291016,1.782304286956787
1646037703569712600,9.018712646484374,1.9146735668182373,1.1161036491394043,1.7620058059692383
1646037703579710200,9.028710205078125,1.515455961227417,1.0901908874511719,1.6853313446044922
1646037703589707800,9.038707763671875,1.0466912984848022,1.0653071403503418,1.5086359977722168
1646037703599705300,9.048705322265626,0.7602225542068481,1.0726923942565918,1.2991633415222168
1646037703609703000,9.058702880859375,0.5764647126197815,1.137871265411377,0.9144902229309082
1646037703619700500,9.068700439453124,0.5477278232574463,1.196793556213379,0.703239917755127
1646037703629698000,9.078697998046875,0.53510981798172,1.1880278587341309,0.5036611557006836
1646037703639695600,9.088695556640625,0.6682733297348022,1.2341723442077637,0.35708093643188477
1646037703649693200,9.098693115234376,0.8622936606407166,1.275219440460205,0.17696332931518555
1646037703659690800,9.108690673828125,1.2055134773254395,1.3061227798461914,-0.05619525909423828
1646037703669688000,9.11868798828125,1.5564899444580078,1.3075389862060547,-0.3116579055786133
1646037703679685600,9.128685546875,1.790632963180542,1.3374133110046387,-0.45966482162475586
1646037703689683200,9.13868310546875,1.949321985244751,1.3802309036254883,-0.5682234764099121
1646037703699681000,9.148680908203126,1.9777129888534546,1.3938803672790527,-0.6050095558166504
1646037703709678600,9.1586787109375,1.9138991832733154,1.4792351722717285,-0.5888309478759766
1646037703719676200,9.16867626953125,1.705031394958496,1.5236873626708984,-0.5029764175415039
1646037703729673500,9.178673583984375,1.334175705909729,1.5535192489624023,-0.30197763442993164
1646037703739671000,9.188671142578125,1.0473774671554565,1.578333854675293,-0.1700763702392578
1646037703749668600,9.198668701171876,0.691271185874939,1.6207118034362793,0.023028850555419922
1646037703759666200,9.208666259765625,0.22461336851119995,1.7661056518554688,0.04670524597167969
1646037703769663700,9.218663818359374,-0.08749434351921082,1.8628168106079102,-0.013963699340820312
1646037703779661300,9.228661376953125,-0.34006965160369873,1.880704402923584,-0.08371210098266602
1646037703789659000,9.238658935546875,-0.43408358097076416,1.8787131309509277,-0.07703113555908203
1646037703799656400,9.248656494140626,-0.3976229131221771,1.8147315979003906,0.06227588653564453
1646037703809654000,9.258654052734375,-0.2704864740371704,1.7804841995239258,0.2751445770263672
1646037703819651600,9.268651611328124,-0.1419290006160736,1.713228702545166,0.5777630805969238
1646037703829649200,9.278649169921875,-0.12038207054138184,1.7623553276062012,0.8750405311584473
1646037703839646700,9.288646728515625,-0.21245183050632477,1.775174617767334,1.133537769317627
1646037703849644300,9.298644287109376,-0.3439118266105652,1.7165369987487793,1.3632454872131348
1646037703859641900,9.308641845703125,-0.44255587458610535,1.7459955215454102,1.4624943733215332
1646037703869639400,9.318639404296874,-0.5214940309524536,1.7635536193847656,1.5397138595581055
1646037703879637000,9.328636962890625,-0.5352266430854797,1.6701030731201172,1.7091727256774902
1646037703889634600,9.338634521484375,-0.49297773838043213,1.6742510795593262,1.9209585189819336
1646037703899632000,9.348632080078126,-0.4668556749820709,1.6488065719604492,2.0861244201660156
1646037703909629700,9.358629638671875,-0.37948668003082275,1.6273822784423828,2.2312092781066895
1646037703919594000,9.368593994140625,-0.4386739730834961,1.5807127952575684,2.3507637977600098
1646037703929558000,9.37855810546875,-0.4863390326499939,1.551814079284668,2.5668506622314453
1646037703939522300,9.388522216796876,-0.553230881690979,1.5501728057861328,2.8074889183044434
1646037703949486600,9.398486572265625,-0.5791088938713074,1.4717106819152832,3.092926502227783
1646037703959451000,9.408450927734375,-0.6110206246376038,1.5161724090576172,3.198873996734619
1646037703969415000,9.418414794921874,-0.7575423717498779,1.5386462211608887,3.1837825775146484
1646037703979379200,9.428379150390626,-0.8727535605430603,1.5053739547729492,3.114562511444092
1646037703989343500,9.438343505859375,-1.1144132614135742,1.4239816665649414,3.051724910736084
1646037703999307800,9.448307861328125,-1.3897373676300049,1.0123777389526367,3.2520790100097656
1646037704009271800,9.458271728515625,-1.6558425426483154,0.2569737434387207,3.4964284896850586
1646037704019236000,9.468236083984374,-1.855062484741211,-0.4709296226501465,3.437809467315674
1646037704029200400,9.478200439453126,-1.7613804340362549,-0.8025078773498535,3.2369275093078613
1646037704039164700,9.48816455078125,-1.5358918905258179,-0.9132480621337891,3.1278862953186035
1646037704049129000,9.49812890625,-1.0358339548110962,-0.9565515518188477,3.365055561065674
1646037704059093000,9.508093017578124,-0.6472301483154297,-1.169273853302002,3.723578453063965
1646037704069057300,9.518057373046876,-0.2832157015800476,-1.3091988563537598,3.9379420280456543
1646037704079021600,9.528021484375,0.19893252849578857,-1.3837857246398926,4.113054275512695
1646037704088985900,9.53798583984375,0.875474214553833,-1.3415770530700684,4.11600923538208
1646037704098950100,9.5479501953125,1.2911008596420288,-1.3598589897155762,3.9730114936828613
1646037704108914200,9.5579140625,1.7380306720733643,-1.3059635162353516,3.649146556854248
1646037704118878500,9.56787841796875,2.058652400970459,-1.116015911102295,2.9929347038269043
1646037704128842800,9.5778427734375,2.080397129058838,-0.8352975845336914,2.3304367065429688
1646037704138807000,9.58780712890625,1.8965537548065186,-0.46224212646484375,1.7090215682983398
1646037704148771000,9.59777099609375,1.3576287031173706,-0.0887002944946289,1.1401777267456055
1646037704158735400,9.6077353515625,1.061366319656372,-0.09072494506835938,0.9665284156799316
1646037704168699600,9.61769970703125,0.5909467935562134,-0.06083822250366211,0.6575570106506348
1646037704178664000,9.627663818359375,0.044355787336826324,-0.15464115142822266,0.30728769302368164
1646037704188628200,9.637628173828125,-0.7535260915756226,-0.38701629638671875,-0.029285430908203125
1646037704198592500,9.647592529296874,-1.2537423372268677,-0.6520380973815918,-0.3466157913208008
1646037704208556500,9.657556640625,-1.5656523704528809,-0.8976888656616211,-1.0927114486694336
1646037704218554000,9.66755419921875,-1.9020116329193115,-1.0112309455871582,-1.7093310356140137
1646037704228551700,9.6775517578125,-1.9157931804656982,-1.3778090476989746,-1.8437681198120117
1646037704238549200,9.68754931640625,-1.7220810651779175,-1.555333137512207,-1.7499876022338867
1646037704248546800,9.697546875,-1.432516098022461,-1.7908248901367188,-1.6741046905517578
1646037704258544400,9.70754443359375,-1.0827099084854126,-1.96046781539917,-1.6084799766540527
1646037704268542000,9.7175419921875,-0.5877313017845154,-2.054065227508545,-1.6338210105895996
1646037704278539500,9.72753955078125,-0.25654634833335876,-2.153719425201416,-1.6264100074768066
1646037704288537000,9.737537109375,0.17327861487865448,-2.1580543518066406,-1.700129508972168
1646037704298534700,9.74753466796875,0.432289719581604,-2.167952060699463,-1.7237653732299805
1646037704308532200,9.7575322265625,0.6824762225151062,-2.163968563079834,-1.7586860656738281
1646037704318529800,9.76752978515625,0.9481868147850037,-2.1113438606262207,-1.8367853164672852
1646037704328527400,9.77752734375,1.1909165382385254,-2.0283565521240234,-1.9973931312561035
1646037704338525000,9.78752490234375,1.2517664432525635,-2.0547361373901367,-2.0662574768066406
1646037704348522500,9.7975224609375,1.1898247003555298,-2.08010196685791,-2.1222338676452637
1646037704358520000,9.80752001953125,1.0808236598968506,-2.0708279609680176,-2.263399124145508
1646037704368517600,9.817517578125,1.0266516208648682,-1.9934310913085938,-2.4059982299804688
1646037704378515200,9.82751513671875,0.8441591858863831,-1.9314918518066406,-2.619297504425049
1646037704388512800,9.8375126953125,0.5430048704147339,-1.8240666389465332,-2.919473648071289
1646037704398510000,9.847510009765625,0.3666463792324066,-1.7246007919311523,-3.1116433143615723
1646037704408507600,9.857507568359376,0.2310328483581543,-1.5645971298217773,-3.3411898612976074
1646037704418505200,9.867505126953125,0.19795063138008118,-1.394364833831787,-3.6059656143188477
1646037704428502800,9.877502685546874,0.24594959616661072,-1.2693300247192383,-3.839268684387207
1646037704438500400,9.887500244140625,0.34889674186706543,-1.2152624130249023,-3.9894051551818848
1646037704448498000,9.897497802734375,0.30914369225502014,-1.247485637664795,-4.063929080963135
1646037704458495500,9.90749560546875,0.2836756706237793,-1.1971817016601562,-4.141210556030273
1646037704468493000,9.9174931640625,0.05910682678222656,-0.8073439598083496,-4.337906837463379
1646037704478490600,9.92749072265625,-0.07573014497756958,-0.6946444511413574,-4.26788854598999
1646037704488488200,9.93748828125,-0.40603235363960266,-0.5839662551879883,-3.9752378463745117
1646037704498485800,9.94748583984375,-0.6068150997161865,-0.41188526153564453,-3.7022600173950195
1646037704508483300,9.9574833984375,-0.8379732966423035,-0.2656831741333008,-3.3908586502075195
1646037704518481000,9.96748095703125,-0.9146252870559692,-0.1938786506652832,-3.21510648727417
1646037704528478500,9.977478515625,-1.0283293724060059,-0.1526169776916504,-3.034627914428711
1646037704538476000,9.98747607421875,-1.1406986713409424,-0.14216279983520508,-2.863827705383301
1646037704548473600,9.9974736328125,-1.1194125413894653,-0.13947200775146484,-2.6816658973693848
1646037704558471200,10.00747119140625,-1.0737295150756836,-0.09707117080688477,-2.5434465408325195
1646037704568468700,10.01746875,-0.9960069060325623,-0.12350988388061523,-2.3836121559143066
1646037704578466300,10.02746630859375,-0.8659183382987976,-0.18311548233032227,-2.2563443183898926
1646037704588463900,10.0374638671875,-0.7237544059753418,-0.29294490814208984,-2.1402969360351562
1646037704598494700,10.04749462890625,-0.5503493547439575,-0.46202754974365234,-2.092534065246582
1646037704608558800,10.057558837890625,-0.34883052110671997,-0.6246471405029297,-1.9948444366455078
1646037704618623000,10.067623046875,-0.18232983350753784,-0.8153777122497559,-1.757561206817627
1646037704628687400,10.077687255859376,0.049243777990341187,-0.9951648712158203,-1.40142822265625
1646037704638751500,10.08775146484375,0.09076249599456787,-1.0173144340515137,-1.142989158630371
1646037704648815900,10.09781591796875,0.2529700696468353,-1.067094326019287,-0.8086013793945312
1646037704658880000,10.1078798828125,0.34446996450424194,-1.0617942810058594,-0.5371742248535156
1646037704668944100,10.117944091796875,0.48804783821105957,-1.1123032569885254,-0.14484500885009766
1646037704679008500,10.128008544921874,0.5465652942657471,-1.1549019813537598,0.11381196975708008
1646037704689072600,10.13807275390625,0.4482879936695099,-1.6877241134643555,0.7773990631103516
1646037704699136800,10.14813671875,0.14249072968959808,-2.614745616912842,1.5516090393066406
1646037704709201200,10.158201171875,-0.22819018363952637,-3.586869239807129,2.179809093475342
1646037704719265300,10.168265380859374,-0.26167869567871094,-3.7674083709716797,2.181948661804199
1646037704729329400,10.178329345703125,-0.17957770824432373,-4.1059722900390625,2.31062650680542
1646037704739393800,10.188393798828125,0.10387677699327469,-3.6125893592834473,2.1909146308898926
1646037704749458000,10.1984580078125,0.5745481252670288,-3.1738834381103516,2.0379695892333984
1646037704759522000,10.20852197265625,0.8071773052215576,-2.7171735763549805,1.8457622528076172
1646037704769586400,10.21858642578125,1.2432705163955688,-1.9832100868225098,1.6988859176635742
1646037704779650600,10.228650634765625,1.7694587707519531,-1.3475456237792969,1.6769638061523438
1646037704789714700,10.238714599609375,2.2517383098602295,-0.7262511253356934,1.779930591583252
1646037704799779000,10.248779052734376,2.679924249649048,-0.1893787384033203,1.94877290725708
1646037704809843200,10.25884326171875,2.9245991706848145,0.27835750579833984,1.9768810272216797
1646037704819907300,10.2689072265625,2.9507193565368652,0.5346426963806152,1.8471665382385254
1646037704829971700,10.2789716796875,2.800945997238159,0.8076744079589844,1.5216712951660156
1646037704840035800,10.289035888671876,2.3795337677001953,1.058135986328125,1.1958484649658203
1646037704850100000,10.299099853515624,1.9705084562301636,1.197272777557373,0.9324741363525391
1646037704860164400,10.309164306640625,1.692720651626587,1.3374829292297363,0.8255615234375
1646037704870228500,10.319228515625,1.5021417140960693,1.468510627746582,0.8847990036010742
1646037704880292600,10.329292724609376,1.457194447517395,1.5310182571411133,1.048661231994629
1646037704890357000,10.33935693359375,1.3151745796203613,1.5368719100952148,1.300081729888916
1646037704900387800,10.349387939453125,1.158422827720642,1.4806156158447266,1.5589957237243652
1646037704910385200,10.35938525390625,0.9908955097198486,1.447178840637207,1.696845531463623
1646037704920382700,10.3693828125,0.7891356348991394,1.405306339263916,1.7964229583740234
1646037704930380300,10.37938037109375,0.5187345743179321,1.2822504043579102,1.878612995147705
1646037704940377900,10.3893779296875,0.3890576958656311,1.1980853080749512,1.9053888320922852
1646037704950375400,10.39937548828125,0.28945648670196533,1.131542682647705,1.8530545234680176
1646037704960373000,10.409373046875,0.23936690390110016,1.080617904663086,1.6981134414672852
1646037704970370600,10.41937060546875,0.2957015037536621,0.9889392852783203,1.511392593383789
1646037704980368100,10.4293681640625,0.5199039578437805,0.9323153495788574,1.3834614753723145
1646037704990365700,10.43936572265625,0.9981558322906494,0.9405441284179688,1.2534146308898926
1646037705000363300,10.44936328125,1.2982966899871826,1.0476551055908203,1.1984167098999023
1646037705010360800,10.45936083984375,1.5222651958465576,1.1580867767333984,1.18267822265625
1646037705020358400,10.4693583984375,1.5909767150878906,1.264535903930664,1.1914167404174805
1646037705030356000,10.47935595703125,1.5592453479766846,1.41886568069458,1.0919685363769531
1646037705040353500,10.489353515625,1.5818811655044556,1.5721216201782227,1.0411038398742676
1646037705050351000,10.49935107421875,1.6351263523101807,1.7278718948364258,1.0350384712219238
1646037705060348700,10.5093486328125,1.5964633226394653,1.766653060913086,1.0311870574951172
1646037705070346200,10.51934619140625,1.493945837020874,1.803481101989746,0.9865303039550781
1646037705080343800,10.52934375,1.4173102378845215,1.8600149154663086,0.9179530143737793
1646037705090341000,10.539341064453126,1.3212467432022095,1.9385943412780762,0.8397736549377441
1646037705100339000,10.5493388671875,1.0244673490524292,1.9963293075561523,0.7931122779846191
1646037705110336500,10.55933642578125,0.6385813355445862,1.9835691452026367,0.7883477210998535
1646037705120334000,10.569333984375,0.2523549199104309,1.9723587036132812,0.7252039909362793
1646037705130331600,10.57933154296875,-0.007563568651676178,1.9791865348815918,0.6825518608093262
1646037705140329000,10.589328857421876,-0.20262771844863892,1.982748031616211,0.622373104095459
1646037705150326500,10.599326416015625,-0.24567872285842896,1.932917594909668,0.6525979042053223
1646037705160324000,10.609323974609374,-0.27556753158569336,1.851611614227295,0.7353181838989258
1646037705170321700,10.61932177734375,-0.26541581749916077,1.724560260772705,0.9160265922546387
1646037705180319200,10.6293193359375,-0.19525843858718872,1.714216709136963,1.0553903579711914
1646037705190316800,10.63931689453125,-0.19698183238506317,1.683436393737793,1.2411627769470215
1646037705200314400,10.649314453125,-0.30390843749046326,1.6389894485473633,1.3506979942321777
1646037705210312000,10.65931201171875,-0.30697959661483765,1.6255741119384766,1.3975119590759277
1646037705220309500,10.6693095703125,-0.31843358278274536,1.5164246559143066,1.4009652137756348
1646037705230307000,10.67930712890625,-0.3057156205177307,1.3882169723510742,1.2702054977416992
1646037705240304600,10.6893046875,-0.2082718014717102,1.3132987022399902,1.2644896507263184
1646037705250302200,10.69930224609375,-0.10805866122245789,1.1561059951782227,1.2460737228393555
1646037705260299800,10.7092998046875,0.036249563097953796,1.0609126091003418,1.2492485046386719
1646037705270297300,10.71929736328125,0.07711122930049896,0.8955612182617188,1.3045916557312012
1646037705280295000,10.729294921875,0.13205446302890778,0.775019645690918,1.342681884765625
1646037705290292500,10.73929248046875,0.15307363867759705,0.5498204231262207,1.4537243843078613
1646037705300290000,10.7492900390625,0.11383930593729019,0.4390277862548828,1.4782681465148926
1646037705310287600,10.75928759765625,0.10442988574504852,0.24856090545654297,1.5502371788024902
1646037705320285200,10.76928515625,0.0942363366484642,0.03291511535644531,1.637946605682373
1646037705330282800,10.77928271484375,0.034980274736881256,-0.06129741668701172,1.69649076461792
1646037705340280000,10.789280029296876,-0.06197656691074371,-0.13239812850952148,1.7832183837890625
1646037705350278000,10.79927783203125,-0.2585555911064148,-0.17798614501953125,1.8119606971740723
1646037705360275500,10.809275390625,-0.4720049500465393,-0.24857568740844727,1.8855209350585938
1646037705370273000,10.81927294921875,-0.8303223848342896,-0.8495697975158691,2.185673236846924
1646037705380270600,10.8292705078125,-1.0784823894500732,-1.5673747062683105,2.2568979263305664
1646037705390268200,10.83926806640625,-1.019552230834961,-1.9142260551452637,2.057828903198242
1646037705400265500,10.849265380859375,-0.6912150382995605,-2.0112767219543457,1.8838019371032715
1646037705410263000,10.859262939453124,-0.6279432773590088,-2.499941349029541,2.142068386077881
1646037705420260600,10.869260498046875,-0.48567986488342285,-2.2601423263549805,2.1738061904907227
1646037705430258200,10.879258056640625,-0.19111301004886627,-1.9841833114624023,2.383129596710205
1646037705440255700,10.889255859375,-0.14267142117023468,-1.6836376190185547,2.7130074501037598
1646037705450253300,10.89925341796875,-0.16002149879932404,-1.1726174354553223,2.7413206100463867
1646037705460251000,10.9092509765625,-0.16413132846355438,-0.8603997230529785,2.684011936187744
1646037705470248400,10.91924853515625,-0.09827274829149246,-0.5367593765258789,2.3135123252868652
1646037705480246000,10.92924609375,0.0624653697013855,-0.23500633239746094,1.7166590690612793
1646037705490243600,10.93924365234375,0.259603351354599,0.027326107025146484,0.8669261932373047
1646037705500241200,10.9492412109375,0.39938849210739136,0.20180463790893555,0.013086318969726562
1646037705510238700,10.95923876953125,0.45685720443725586,0.17383146286010742,-0.5163531303405762
1646037705520236300,10.969236328125,0.4417083263397217,0.046416282653808594,-0.924950122833252
1646037705530233900,10.97923388671875,0.3864139914512634,-0.3350515365600586,-1.228482723236084
1646037705540231400,10.9892314453125,0.2785007953643799,-0.6482858657836914,-1.3229422569274902
1646037705550229000,10.99922900390625,0.030438899993896484,-1.092200756072998,-1.2115263938903809
1646037705560226600,11.0092265625,-0.23212899267673492,-1.3318562507629395,-1.3118338584899902
1646037705570224000,11.01922412109375,-0.30601370334625244,-1.397005558013916,-1.6774115562438965
1646037705580221700,11.0292216796875,-0.4545588493347168,-1.4635372161865234,-1.617828369140625
1646037705590219300,11.03921923828125,-0.7081306576728821,-1.5571045875549316,-1.40584135055542
1646037705600216800,11.049216796875,-0.8985792398452759,-1.6749320030212402,-1.3631858825683594
1646037705610214400,11.05921435546875,-1.066386342048645,-1.8948040008544922,-1.201097011566162
1646037705620212000,11.0692119140625,-1.1431573629379272,-2.1688618659973145,-0.9822282791137695
1646037705630209500,11.07920947265625,-1.1492607593536377,-2.294051170349121,-0.7359485626220703
1646037705640207000,11.08920703125,-1.0210165977478027,-2.309070110321045,-0.3906855583190918
1646037705650204400,11.099204345703125,-0.8086967468261719,-2.260444164276123,-0.15525102615356445
1646037705660202000,11.109201904296874,-0.6053100824356079,-2.156463623046875,-0.13234519958496094
1646037705670199600,11.119199462890625,-0.3942621946334839,-2.0552291870117188,-0.1993117332458496
1646037705680197000,11.129197021484375,-0.2048342376947403,-2.003161907196045,-0.41890430450439453
1646037705690194700,11.139194580078126,0.10739850997924805,-1.892895221710205,-0.8200507164001465
1646037705700192300,11.149192138671875,0.48995718359947205,-1.7648673057556152,-1.356964111328125
1646037705710189800,11.15918994140625,0.7563453912734985,-1.656158447265625,-1.8708281517028809
1646037705720187400,11.1691875,0.8752057552337646,-1.622579574584961,-2.219118595123291
1646037705730185000,11.17918505859375,0.9018567800521851,-1.5385041236877441,-2.581772804260254
1646037705740182800,11.189182861328124,0.8171139359474182,-1.4434795379638672,-2.845637798309326
1646037705750180000,11.19918017578125,0.5657178163528442,-1.3638153076171875,-3.0755515098571777
1646037705760177700,11.209177734375,0.3272775411605835,-1.3017377853393555,-3.3004488945007324
1646037705770175200,11.21917529296875,0.017765730619430542,-1.2068605422973633,-3.554029941558838
1646037705780172800,11.2291728515625,-0.17691460251808167,-1.157266616821289,-3.7114529609680176
1646037705790170400,11.23917041015625,-0.33321502804756165,-1.1043367385864258,-3.896883010864258
1646037705800168000,11.24916796875,-0.5404125452041626,-1.0162043571472168,-4.105220794677734
1646037705810165500,11.25916552734375,-0.6915906071662903,-0.9775776863098145,-4.215867519378662
1646037705820163000,11.2691630859375,-0.7582538723945618,-0.9700727462768555,-4.266251564025879
1646037705830160600,11.27916064453125,-0.7267645597457886,-0.9688243865966797,-4.267756938934326
1646037705840158200,11.289158203125,-0.5989742279052734,-0.9444375038146973,-4.205464839935303
1646037705850155800,11.29915576171875,-0.42467084527015686,-0.9315299987792969,-4.089933395385742
1646037705860153300,11.3091533203125,-0.13864237070083618,-0.8819212913513184,-3.8913421630859375
1646037705870151000,11.31915087890625,0.08292767405509949,-0.8309407234191895,-3.6463623046875
1646037705880148500,11.3291484375,0.21896937489509583,-0.7381834983825684,-3.4833455085754395
1646037705890146000,11.33914599609375,0.2381841242313385,-0.6850385665893555,-3.343721389770508
1646037705900143600,11.3491435546875,0.20211726427078247,-0.6514005661010742,-3.3073620796203613
1646037705910141200,11.35914111328125,0.11007857322692871,-0.6161355972290039,-3.214116096496582
1646037705920138800,11.369138671875,-0.0033286213874816895,-0.6792573928833008,-3.077989101409912
1646037705930136300,11.37913623046875,-0.10684680938720703,-0.7224111557006836,-2.859837532043457
1646037705940134000,11.3891337890625,-0.1597415804862976,-0.7767190933227539,-2.5882420539855957
1646037705950131500,11.39913134765625,-0.1869087517261505,-0.8804464340209961,-2.246185779571533
1646037705960129000,11.40912890625,-0.18610644340515137,-0.9066910743713379,-1.9291868209838867
1646037705970126600,11.419126708984376,-0.2230910360813141,-0.9497437477111816,-1.6208868026733398
1646037705980124200,11.429124267578125,-0.22249510884284973,-0.9656295776367188,-1.3534917831420898
1646037705990121700,11.439121826171874,-0.17592217028141022,-0.9533390998840332,-1.080580234527588
1646037706000119300,11.449119384765625,-0.11914156377315521,-0.9468955993652344,-0.8307085037231445
1646037706010116900,11.459116943359374,-0.006216093897819519,-0.9155426025390625,-0.5966110229492188
1646037706020114200,11.4691142578125,0.0047723352909088135,-0.8784279823303223,-0.41915130615234375
1646037706030111700,11.47911181640625,-0.009461730718612671,-0.8733334541320801,-0.22140836715698242
1646037706040109300,11.489109375,-0.1547843962907791,-1.22772216796875,0.26516008377075195
1646037706050107100,11.499107177734375,-0.5001903772354126,-1.921922206878662,0.827763557434082
1646037706060104700,11.509104736328124,-0.6159672737121582,-2.448863983154297,1.0899429321289062
1646037706070102000,11.51910205078125,-0.563277006149292,-2.730116367340088,0.9074091911315918
1646037706080099600,11.529099609375,-0.41490912437438965,-2.8547439575195312,0.8876051902770996
1646037706090097200,11.53909716796875,-0.14581790566444397,-2.9532532691955566,1.021944522857666
1646037706100094700,11.5490947265625,0.36529046297073364,-2.9637436866760254,1.2695603370666504
1646037706110092300,11.55909228515625,0.7127410173416138,-2.9773759841918945,1.5755958557128906
1646037706120089900,11.56908984375,0.9308395981788635,-2.981834888458252,1.8593754768371582
1646037706130087400,11.57908740234375,1.258772373199463,-2.657320976257324,1.9429025650024414
1646037706140085000,11.5890849609375,1.4793604612350464,-2.1818056106567383,1.901975154876709
1646037706150082600,11.59908251953125,1.7357566356658936,-1.6159753799438477,1.8028020858764648
1646037706160080100,11.609080078125,1.847494125366211,-0.9698638916015625,1.7237615585327148
1646037706170077700,11.61907763671875,1.9311094284057617,-0.2154526710510254,1.637606143951416
1646037706180075300,11.6290751953125,1.989974021911621,0.5022692680358887,1.5617213249206543
1646037706190072800,11.63907275390625,1.9971271753311157,1.0763449668884277,1.6303730010986328
1646037706200070400,11.6490703125,1.9788169860839844,1.3734135627746582,1.750035285949707
1646037706210068000,11.65906787109375,1.9379862546920776,1.6272382736206055,1.7373261451721191
1646037706220065500,11.6690654296875,1.7771058082580566,1.834333896636963,1.6262626647949219
1646037706230063000,11.67906298828125,1.5626329183578491,1.9250802993774414,1.4785819053649902
1646037706240060700,11.689060791015624,1.3110716342926025,1.965120792388916,1.3169183731079102
1646037706250058200,11.699058349609375,0.9414746165275574,1.872119426727295,1.2962651252746582
1646037706260055800,11.709055908203124,0.6089015007019043,1.7924609184265137,1.3834238052368164
1646037706270053000,11.71905322265625,0.14266514778137207,1.6975297927856445,1.5936107635498047
1646037706280050700,11.72905078125,-0.4264240860939026,1.5489978790283203,1.7661762237548828
1646037706290048300,11.73904833984375,-0.9289718270301819,1.408884048461914,1.903097152709961
1646037706300045800,11.7490458984375,-1.349196434020996,1.2770872116088867,1.8914413452148438
1646037706310043400,11.75904345703125,-1.6590696573257446,1.2473125457763672,1.8273072242736816
1646037706320041000,11.769041015625,-1.7456367015838623,1.2510485649108887,1.7190508842468262
1646037706330038500,11.77903857421875,-1.7274457216262817,1.2673778533935547,1.474137306213379
1646037706340036000,11.7890361328125,-1.4814586639404297,1.2346911430358887,1.2275614738464355
1646037706350033700,11.79903369140625,-1.0409836769104004,1.1707558631896973,0.9736266136169434
1646037706360031200,11.80903125,-0.5309097170829773,1.1534438133239746,0.7931070327758789
1646037706370028800,11.81902880859375,0.11826837062835693,1.1693968772888184,0.6921529769897461
1646037706380026400,11.8290263671875,0.5095957517623901,1.2258877754211426,0.6206851005554199
1646037706390024000,11.83902392578125,0.8729156851768494,1.2961177825927734,0.6043682098388672
1646037706400021500,11.849021484375,1.3141847848892212,1.427095890045166,0.6108169555664062
1646037706410019000,11.85901904296875,1.543416142463684,1.5412726402282715,0.6914849281311035
1646037706420016600,11.8690166015625,1.6265039443969727,1.5946602821350098,0.7732377052307129
1646037706430014000,11.879013916015625,1.4599765539169312,1.6800642013549805,0.8601293563842773
1646037706440011500,11.889011474609376,1.3582011461257935,1.772996425628662,0.8149003982543945
1646037706450009000,11.899009033203125,1.036731243133545,1.9327645301818848,0.7542333602905273
1646037706460006700,11.909006591796874,0.6230148077011108,2.0185751914978027,0.7697787284851074
1646037706470004200,11.919004150390625,0.18560053408145905,2.0263214111328125,0.8098807334899902
1646037706480001800,11.929001708984375,-0.11844802647829056,2.0497488975524902,0.8630261421203613
1646037706489999400,11.938999267578126,-0.4140850901603699,2.0552525520324707,0.9267215728759766
1646037706499997000,11.948996826171875,-0.5220008492469788,2.0041861534118652,0.9692411422729492
1646037706509994500,11.958994384765624,-0.5731316208839417,1.9684710502624512,0.9691958427429199
1646037706519992000,11.968991943359375,-0.5550308227539062,1.8854398727416992,0.9953265190124512
1646037706529989600,11.97898974609375,-0.5429946780204773,1.8184165954589844,1.0730924606323242
1646037706539987200,11.9889873046875,-0.5540491342544556,1.7245888710021973,1.166971206665039
1646037706549984800,11.99898486328125,-0.6100156903266907,1.6226983070373535,1.2596478462219238
1646037706559982300,12.008982421875,-0.6730920076370239,1.546060562133789,1.2910003662109375
1646037706569980000,12.01897998046875,-0.7651954889297485,1.4301552772521973,1.3330731391906738
1646037706579977500,12.0289775390625,-0.7789426445960999,1.3088359832763672,1.4078736305236816
1646037706589975000,12.03897509765625,-0.7634090781211853,1.1844515800476074,1.422022819519043
1646037706599972600,12.04897265625,-0.6987683176994324,1.0957903861999512,1.4575505256652832
1646037706609970200,12.05897021484375,-0.534714937210083,0.9472441673278809,1.461988925933838
1646037706619967700,12.0689677734375,-0.43469205498695374,0.8279247283935547,1.4863324165344238
1646037706629965300,12.07896533203125,-0.3179408013820648,0.658961296081543,1.573838233947754
1646037706639963000,12.088962890625,-0.21653196215629578,0.5816564559936523,1.631246566772461
1646037706649960400,12.09896044921875,-0.1410064697265625,0.5886707305908203,1.6655244827270508
1646037706659958000,12.1089580078125,-0.1296253204345703,0.5627851486206055,1.7367849349975586
1646037706669955600,12.11895556640625,-0.25725290179252625,0.5224704742431641,1.846458911895752
1646037706679953000,12.128952880859375,-0.4267387390136719,0.5578193664550781,1.9000554084777832
1646037706689984000,12.13898388671875,-0.6177947521209717,0.5438761711120605,1.956756591796875
1646037706700014800,12.149014892578125,-0.789592981338501,0.5374956130981445,1.9249420166015625
1646037706710045700,12.159045654296875,-0.9436113834381104,0.30202293395996094,2.1234240531921387
1646037706720076500,12.16907666015625,-1.2790112495422363,-0.49535560607910156,2.6217312812805176
1646037706730107400,12.179107421875,-1.5313043594360352,-1.4162859916687012,2.835874080657959
1646037706740138200,12.18913818359375,-1.4685754776000977,-1.6616082191467285,2.5281238555908203
1646037706750169300,12.19916943359375,-1.090573787689209,-1.5949954986572266,2.0578389167785645
1646037706760200200,12.2092001953125,-0.7539962530136108,-1.4659290313720703,1.963731288909912
1646037706770231000,12.21923095703125,-0.5282179713249207,-1.340822696685791,2.2904129028320312
1646037706780262000,12.229261962890625,-0.4198826253414154,-0.9431667327880859,2.5887341499328613
1646037706790292700,12.239292724609374,-0.3863999545574188,-0.4227938652038574,2.7993154525756836
1646037706800323800,12.24932373046875,-0.3600183129310608,0.05637359619140625,2.846367835998535
1646037706810354700,12.259354736328126,-0.27098560333251953,0.5962157249450684,2.6900839805603027
1646037706820385500,12.269385498046875,-0.12193448841571808,0.891726016998291,2.3508529663085938
1646037706830416400,12.27941650390625,0.10438436269760132,1.0378069877624512,1.8304972648620605
1646037706840447200,12.289447265625,0.38900211453437805,1.0857281684875488,1.21187162399292
1646037706850478000,12.29947802734375,0.5268440842628479,1.0520195960998535,0.5193815231323242
1646037706860509000,12.309509033203126,0.5424555540084839,0.8775768280029297,0.2379913330078125
1646037706870539800,12.319539794921875,0.4222506284713745,0.5315394401550293,0.10496807098388672
1646037706880570600,12.329570556640626,0.1573142260313034,0.0414586067199707,0.21967172622680664
1646037706890601700,12.339601806640625,-0.25851601362228394,-0.32451963424682617,0.3830890655517578
1646037706900632600,12.349632568359375,-0.8420615792274475,-0.5206947326660156,0.5208640098571777
1646037706910663400,12.359663330078124,-1.5566654205322266,-0.747673511505127,0.7845001220703125
1646037706920694300,12.3696943359375,-1.9502906799316406,-0.9248371124267578,0.8237924575805664
1646037706930725000,12.37972509765625,-2.3324368000030518,-1.0844917297363281,0.7933845520019531
1646037706940756000,12.389755859375,-2.4770872592926025,-1.221707820892334,0.5787196159362793
1646037706950786800,12.399786865234375,-2.306856632232666,-1.435873031616211,0.34647607803344727
1646037706960817700,12.409817626953124,-2.0047996044158936,-1.6436896324157715,0.12732601165771484
1646037706970848800,12.419848876953125,-1.4203157424926758,-1.9896559715270996,-0.21130895614624023
1646037706980879600,12.429879638671874,-0.9434064030647278,-2.0941848754882812,-0.6252942085266113
1646037706990877200,12.439877197265625,-0.5145728588104248,-2.0851263999938965,-1.0802063941955566
1646037707000874800,12.449874755859375,-0.2310691773891449,-2.0584421157836914,-1.3328027725219727
1646037707010872300,12.459872314453126,0.15333199501037598,-1.9884657859802246,-1.3916726112365723
1646037707020870000,12.469869873046875,0.31865373253822327,-1.870382308959961,-1.396106243133545
1646037707030867500,12.479867431640624,0.47663962841033936,-1.6781525611877441,-1.4351835250854492
1646037707040865000,12.489864990234375,0.5264630317687988,-1.535740852355957,-1.5123510360717773
1646037707050862600,12.499862548828125,0.4573221802711487,-1.3872523307800293,-1.6958727836608887
1646037707060860000,12.50985986328125,0.34140074253082275,-1.3601937294006348,-1.8809380531311035
1646037707070857500,12.519857421875,0.2941131591796875,-1.3270807266235352,-1.992870807647705
1646037707080855000,12.52985498046875,0.23864611983299255,-1.354043960571289,-2.064594268798828
1646037707090852600,12.5398525390625,0.19448168575763702,-1.340001106262207,-2.134052276611328
1646037707100850200,12.54985009765625,0.21614515781402588,-1.3688769340515137,-2.2205281257629395
1646037707110847700,12.55984765625,0.17436908185482025,-1.3709826469421387,-2.3095760345458984
1646037707120845300,12.56984521484375,0.16471980512142181,-1.3585052490234375,-2.389354705810547
1646037707130843000,12.5798427734375,0.02532827854156494,-1.346059799194336,-2.474435329437256
1646037707140873700,12.589873779296875,-0.16850677132606506,-1.349775791168213,-2.552456855773926
1646037707150904600,12.599904541015626,-0.28515690565109253,-1.3561954498291016,-2.6823816299438477
1646037707160935400,12.609935302734375,-0.3585522174835205,-1.3607287406921387,-2.735130786895752
1646037707170966300,12.61996630859375,-0.41133320331573486,-1.410527229309082,-2.7437939643859863
1646037707180997400,12.629997314453124,-0.4093864858150482,-1.4210686683654785,-2.74151611328125
1646037707191028200,12.6400283203125,-0.34067538380622864,-1.452946662902832,-2.762366771697998
1646037707201059000,12.65005908203125,-0.27445778250694275,-1.4777789115905762,-2.7826156616210938
