time,seconds_elapsed,z,y,x
1652389138779528000,0.30152783203125,0.027691131457686424,-1.178565502166748,-1.624883770942688
1652389138790781700,0.31278173828125,0.22683320939540863,-1.1901719570159912,-1.40008544921875
1652389138800779800,0.32277978515625,0.26104167103767395,-1.1022074222564697,-0.9456017017364502
1652389138810777300,0.33277734375,0.15414024889469147,-1.1284745931625366,-0.543652355670929
1652389138820775000,0.34277490234375,-0.030951930209994316,-1.4516223669052124,-0.32679519057273865
1652389138830772500,0.3527724609375,-0.1457946002483368,-1.6971900463104248,-0.1019967794418335
1652389138840770300,0.362770263671875,-0.19222034513950348,-1.7649961709976196,0.1307428777217865
1652389138850768000,0.372767822265625,-0.14823804795742035,-1.5102653503417969,0.20832276344299316
1652389138860765400,0.382765380859375,-0.0395040437579155,-1.4809437990188599,-0.10749457031488419
1652389138870763000,0.392762939453125,0.15414024889469147,-1.32944917678833,-0.287699818611145
1652389138880760600,0.402760498046875,0.2738698124885559,-1.2671409845352173,-0.4013207256793976
1652389138890758100,0.412758056640625,0.23538531363010406,-1.1639047861099243,-0.4208684265613556
1652389138900755700,0.422755615234375,0.1834617704153061,-1.1535199880599976,-0.3548949956893921
1652389138910753300,0.432753173828125,0.16391408443450928,-1.143746256828308,-0.31641048192977905
1652389138920750800,0.442750732421875,0.0820581391453743,-1.3239513635635376,-0.4544660449028015
1652389138930748400,0.45274853515625,0.1126013994216919,-1.4088616371154785,-0.5796934366226196
1652389138940746000,0.46274609375,0.24027223885059357,-1.4412375688552856,-0.6248974800109863
1652389138950743600,0.47274365234375,0.22194626927375793,-1.5963972806930542,-0.7159163951873779
1652389138960741000,0.4827412109375,0.28608712553977966,-1.5573019981384277,-0.6786535382270813
1652389138970738700,0.49273876953125,0.3233499228954315,-1.5346999168395996,-0.6933143138885498
1652389138980736300,0.502736328125,0.4913378655910492,-1.4815547466278076,-0.8319807648658752
1652389138990733800,0.51273388671875,0.6587148904800415,-1.7857656478881836,-0.8350350856781006
1652389139000731400,0.5227314453125,0.816318154335022,-2.4613826274871826,-0.6817078590393066
1652389139010729000,0.53272900390625,1.1058683395385742,-3.221298933029175,-0.38788172602653503
1652389139020726500,0.5427265625,1.5847866535186768,-3.7961230278015137,-0.0714535191655159
1652389139030724000,0.55272412109375,2.0698137283325195,-4.296422004699707,0.09164749830961227
1652389139040721700,0.5627216796875,2.626311779022217,-4.505337715148926,0.15945354104042053
1652389139050719200,0.57271923828125,3.288489818572998,-4.439364433288574,0.1411276012659073
1652389139060716800,0.582716796875,3.888359308242798,-4.356897354125977,-0.010366993956267834
1652389139070714400,0.59271435546875,4.457075119018555,-4.279928207397461,-0.1826310008764267
1652389139080712000,0.6027119140625,5.089320182800293,-4.187076568603516,-0.45752036571502686
1652389139090709500,0.61270947265625,5.7991461753845215,-4.005039215087891,-0.8191525936126709
1652389139100707000,0.62270703125,6.8626627922058105,-3.428382396697998,-1.493547797203064
1652389139110704600,0.63270458984375,7.307982921600342,-2.995889663696289,-2.1105217933654785
1652389139120702200,0.6427021484375,7.601198196411133,-2.5310213565826416,-2.734825849533081
1652389139130699800,0.65269970703125,7.758191108703613,-2.239638328552246,-3.2552831172943115
1652389139140697300,0.662697265625,7.916404724121094,-2.0423290729522705,-3.6706717014312744
1652389139150695000,0.67269482421875,8.201678276062012,-1.7045204639434814,-3.991375684738159
1652389139160692500,0.6826923828125,8.46923828125,-1.3728207349777222,-4.153254985809326
1652389139170690000,0.69268994140625,8.814987182617188,-0.9873647093772888,-3.922959089279175
1652389139180687600,0.7026875,9.366599082946777,-0.5402113795280457,-3.3133153915405273
1652389139190685200,0.712685302734375,9.654315948486328,-0.16697268187999725,-2.5540096759796143
1652389139200682800,0.722682861328125,9.249923706054688,0.08897984772920609,-1.7721024751663208
1652389139210680300,0.732680419921875,8.342177391052246,0.4872640073299408,-0.8032701015472412
1652389139220678000,0.742677978515625,7.394726276397705,0.9142587780952454,0.21870747208595276
1652389139230675200,0.75267529296875,6.4552154541015625,1.4420464038848877,1.0195518732070923
1652389139240672800,0.7626728515625,5.527310848236084,2.168976068496704,1.4269988536834717
1652389139250670300,0.77267041015625,4.636058807373047,3.427969217300415,1.3646906614303589
1652389139260668000,0.78266796875,4.301304340362549,4.072432041168213,1.1997570991516113
1652389139270665500,0.79266552734375,4.038021564483643,4.474381446838379,1.232132911682129
1652389139280663000,0.8026630859375,3.7722952365875244,4.457277297973633,1.4660943746566772
1652389139290660600,0.81266064453125,3.3843958377838135,4.217817783355713,1.8570481538772583
1652389139300658200,0.822658203125,2.8853187561035156,3.9099419116973877,2.2785451412200928
1652389139310655700,0.83265576171875,2.3660831451416016,3.696139097213745,2.5705385208129883
1652389139320653300,0.8426533203125,1.8553998470306396,3.6332199573516846,2.7055397033691406
1652389139330651000,0.85265087890625,1.3221145868301392,3.6185593605041504,2.7104268074035645
1652389139340648400,0.8626484375,0.7570642232894897,3.623445987701416,2.611466646194458
1652389139350646000,0.87264599609375,0.23782877624034882,3.7083563804626465,2.413546323776245
1652389139360643600,0.8826435546875,-0.59050452709198,4.433453559875488,0.8509529829025269
1652389139370641200,0.89264111328125,-0.7725423574447632,4.647256374359131,0.1667839139699936
1652389139380638700,0.902638671875,-1.3644707202911377,5.255067348480225,-1.3774833679199219
1652389139390636300,0.91263623046875,-1.902643084526062,5.255067348480225,-1.9064927101135254
1652389139400633900,0.9226337890625,-2.197080135345459,4.671690940856934,-1.99018132686615
1652389139410631400,0.93263134765625,-2.2312886714935303,4.190939903259277,-2.0066745281219482
1652389139420629000,0.94262890625,-2.2257907390594482,3.8036513328552246,-2.189934015274048
1652389139430626600,0.95262646484375,-2.1879169940948486,3.4041454792022705,-2.3023335933685303
1652389139440624000,0.9626240234375,-2.1543195247650146,3.036404609680176,-2.29011607170105
1652389139450621700,0.97262158203125,-2.02970290184021,2.4157655239105225,-2.1056346893310547
1652389139460619300,0.982619384765625,-1.8769867420196533,1.801845908164978,-1.6090013980865479
1652389139470616800,0.992616943359375,-1.628975510597229,1.2404608726501465,-0.9981361031532288
1652389139480614100,1.0026142578125,-1.3320949077606201,0.8055247664451599,-0.5149416923522949
1652389139490611700,1.01261181640625,-1.073698878288269,0.5349115133285522,-0.23760886490345
1652389139500609300,1.022609375,-0.8812763690948486,0.5019247531890869,-0.2583782970905304
1652389139510606800,1.03260693359375,-0.72306227684021,0.6503649950027466,-0.5552588105201721
1652389139520604400,1.0426044921875,-0.6576996445655823,0.7358861565589905,-0.7116402983665466
1652389139530602000,1.05260205078125,-0.6748039126396179,0.8586700558662415,-0.792274534702301
1652389139540599600,1.062599609375,-0.6870211958885193,1.0596448183059692,-0.8802390694618225
1652389139550597000,1.07259716796875,-0.7878139615058899,1.2685606479644775,-0.9706471562385559
1652389139560594700,1.0825947265625,-0.8073616623878479,1.5080198049545288,-1.0915985107421875
1652389139570592300,1.09259228515625,-0.9307563900947571,1.6833381652832031,-1.2718037366867065
1652389139580589800,1.10258984375,-1.1323418617248535,1.7780221700668335,-1.4483437538146973
1652389139590587400,1.11258740234375,-1.3259861469268799,1.70960533618927,-1.680472493171692
1652389139600585000,1.1225849609375,-1.4133399724960327,1.5556674003601074,-1.8460171222686768
1652389139610582500,1.13258251953125,-1.362638235092163,1.1439441442489624,-1.8527365922927856
1652389139620580000,1.142580078125,-1.3498098850250244,0.9661823511123657,-1.8020347356796265
1652389139630577700,1.15257763671875,-1.3534752130508423,0.768872857093811,-1.6157208681106567
1652389139640575200,1.1625751953125,-1.3956248760223389,0.5953871607780457,-1.4532307386398315
1652389139650572800,1.17257275390625,-1.608206033706665,0.3565388321876526,-1.2791341543197632
1652389139660570400,1.1825703125,-1.7566462755203247,0.14762291312217712,-1.2797449827194214
1652389139670568000,1.19256787109375,-1.817121982574463,-0.03991271182894707,-1.1960563659667969
1652389139680565200,1.202565185546875,-1.7743613719940186,-0.37039080262184143,-1.0433400869369507
1652389139690562800,1.212562744140625,-1.5947669744491577,-0.7081992626190186,-0.744016170501709
1652389139700560400,1.222560302734375,-1.4017335176467896,-0.9733148217201233,-0.5143308043479919
1652389139710558000,1.232557861328125,-1.1824328899383545,-0.8896262645721436,-0.4709593951702118
1652389139720555500,1.242555419921875,-0.9075435996055603,-0.5371570587158203,-0.5558696389198303
1652389139730552000,1.252552001953125,-0.46039021015167236,-0.1688052862882614,-0.7183598279953003
1652389139740549600,1.262549560546875,0.06739737838506699,-0.07595376670360565,-0.9932491183280945
1652389139750547200,1.272547119140625,0.35206058621406555,-0.07961896061897278,-1.1606261730194092
1652389139760544800,1.282544677734375,0.4009298086166382,-0.2873131334781647,-1.092820167541504
1652389139770542300,1.292542236328125,0.23049840331077576,-0.4210926294326782,-0.6529972553253174
1652389139780540000,1.302539794921875,0.07228429615497589,-0.5408222079277039,-0.2736499011516571
1652389139790537500,1.312537353515625,-0.1958855390548706,-0.5212745070457458,-0.0916120707988739
1652389139800535000,1.32253515625,-0.3266107141971588,-0.4436946511268616,0.023230595514178276
1652389139810532600,1.33253271484375,-0.4781052768230438,-0.3166346848011017,0.09103663265705109
1652389139820530200,1.3425302734375,-0.5868393182754517,-0.20179200172424316,0.1509014219045639
1652389139830527700,1.35252783203125,-0.7010710835456848,-0.07228857278823853,0.19182941317558289
1652389139840525000,1.362525146484375,-0.6974058747291565,0.015676023438572884,0.17472517490386963
1652389139850522600,1.372522705078125,-0.5972239971160889,0.11463619023561478,0.13990585505962372
1652389139860520200,1.382520263671875,-0.22276361286640167,-0.031360600143671036,-0.03846679627895355
1652389139870518000,1.39251806640625,0.014252097345888615,-0.21767449378967285,-0.1423138827085495
1652389139880515600,1.402515625,0.13642513751983643,-0.14009462296962738,-0.1514768749475479
1652389139890513200,1.41251318359375,0.21278329193592072,-0.016699835658073425,-0.177744060754776
1652389139900510700,1.4225107421875,0.20972897112369537,0.03094765543937683,-0.18507444858551025
1652389139910508300,1.43250830078125,0.2085072547197342,-0.013034642674028873,-0.05190582945942879
1652389139920505900,1.442505859375,0.21156157553195953,-0.300141304731369,0.09714528918266296
1652389139930503400,1.45250341796875,0.25065696239471436,-0.6061848402023315,0.2364225685596466
1652389139940501000,1.4625009765625,0.31724128127098083,-0.7198057174682617,0.37447813153266907
1652389139950498600,1.47249853515625,0.36855393648147583,-0.16025316715240479,0.43739721179008484
1652389139960496000,1.48249609375,0.3502280116081238,0.2655198872089386,0.4642753005027771
1652389139970493700,1.49249365234375,0.2854762673377991,0.31866520643234253,0.5064250230789185
1652389139980491300,1.5024912109375,0.22194626927375793,0.09753196686506271,0.5339139699935913
1652389139990488800,1.51248876953125,0.11871005594730377,0.06637784093618393,0.5174205899238586
1652389140000486100,1.522486083984375,0.03196718916296959,0.24352876842021942,0.39097145199775696
1652389140010484000,1.53248388671875,0.011197770945727825,0.22214847803115845,0.027506651356816292
1652389140020481300,1.542481201171875,-0.021788951009511948,0.21787242591381073,-0.03357987105846405
1652389140030480100,1.552480224609375,-0.007739051710814238,0.05721485987305641,-0.10444024205207825
1652389140040477700,1.562477783203125,0.06495390832424164,-0.14009462296962738,-0.12093359977006912
1652389140050475300,1.572475341796875,0.12909474968910217,-0.271430641412735,-0.11054889857769012
1652389140060472800,1.582472900390625,0.09061025083065033,-0.332517147064209,-0.023195164278149605
1652389140070470400,1.592470458984375,-0.02056722342967987,-0.25738072395324707,0.11852557212114334
1652389140080468000,1.602468017578125,-0.05538653954863548,-0.15780970454216003,0.19793805480003357
1652389140090465300,1.61246533203125,-0.07310163229703903,0.041332364082336426,0.011013289913535118
1652389140100462800,1.622462890625,-0.034006256610155106,0.19038347899913788,-0.18629619479179382
1652389140110460400,1.63246044921875,-0.07798855751752853,0.17755530774593353,-0.22905674576759338
1652389140120458000,1.6424580078125,-0.10242316126823425,-0.09122539311647415,-0.3048040568828583
1652389140130455600,1.65245556640625,-0.1347990334033966,-0.3813863694667816,-0.524104654788971
1652389140140453000,1.662453125,-0.19160950183868408,-0.8432005047798157,-0.46851593255996704
1652389140150450700,1.67245068359375,-0.3107282221317291,-1.0912117958068848,-0.3127453029155731
1652389140160448300,1.6824482421875,-0.4622228145599365,-1.1565743684768677,-0.30113884806632996
1652389140170445800,1.69244580078125,-0.4243491590023041,-0.827928900718689,-0.31702136993408203
1652389140180443400,1.702443359375,-0.24231131374835968,-0.28792402148246765,-0.1514768749475479
1652389140190441000,1.71244091796875,-0.3119499385356903,-0.18774209916591644,0.1050865426659584
1652389140200438500,1.7224384765625,-0.5049833655357361,-0.18224431574344635,0.42090386152267456
1652389140210436000,1.73243603515625,-0.6680843830108643,-0.1804117113351822,0.6762455701828003
1652389140220433700,1.74243359375,-0.7823161482810974,-0.2256157547235489,0.8497312664985657
1652389140230431200,1.75243115234375,-0.8122485876083374,-0.2207288146018982,0.9370850324630737
1652389140240428800,1.7624287109375,-0.4982638657093048,-0.18102258443832397,0.7849795818328857
1652389140250426400,1.77242626953125,-0.1299120932817459,-0.16330748796463013,0.48321211338043213
1652389140260424000,1.782423828125,-0.042558372020721436,-0.08022981882095337,0.1050865426659584
1652389140270421200,1.792421142578125,-0.014458569698035717,0.021173810586333275,-0.3451211452484131
1652389140280418800,1.802418701171875,0.07472775131464005,-0.040523577481508255,-0.6230648159980774
1652389140290416400,1.81241650390625,0.03441064804792404,-0.13154248893260956,-0.5387654304504395
1652389140300414000,1.8224140625,0.0050891186110675335,-0.07778636366128922,-0.34573203325271606
1652389140310411500,1.83241162109375,-0.04133664071559906,-0.061292994767427444,-0.010366993956267834
1652389140320409000,1.8424091796875,-0.05905172973871231,-0.26287853717803955,0.2058793008327484
1652389140330406700,1.85240673828125,-0.0596625991165638,-0.4516358971595764,0.4092974364757538
1652389140340404200,1.862404296875,-0.0950927808880806,-0.636117160320282,0.6402044892311096
1652389140350401800,1.87240185546875,-0.13724248111248016,-0.9311650991439819,0.9712934494018555
1652389140360398600,1.882398681640625,-0.23742437362670898,-1.04845130443573,1.3799623250961304
1652389140370429400,1.892429443359375,0.014862962998449802,-0.2250048816204071,1.716549038887024
1652389140380460300,1.902460205078125,0.16147062182426453,-0.07412116974592209,1.9291300773620605
1652389140390491100,1.9124912109375,0.2188919484615326,-0.08939279615879059,2.1044485569000244
1652389140400522000,1.92252197265625,0.18895956873893738,0.010178237222135067,1.9242433309555054
1652389140410552800,1.932552734375,0.19934426248073578,0.11402533203363419,1.2632869482040405
1652389140420584000,1.942583984375,0.2231680154800415,0.11097100377082825,-0.12520965933799744
1652389140430614800,1.95261474609375,0.2384396344423294,-0.054573480039834976,-0.9394930601119995
1652389140440645600,1.962645751953125,0.2494352161884308,-0.11993605643510818,-1.4104701280593872
1652389140450676500,1.972676513671875,0.22622233629226685,-0.0020390681456774473,-1.4733892679214478
1652389140460707300,1.982707275390625,0.14131207764148712,0.22214847803115845,-1.1875042915344238
1652389140470738200,1.99273828125,-0.018734626471996307,0.42312315106391907,-0.7079750895500183
1652389140480769000,2.00276904296875,-0.2117680460214615,0.5153637528419495,-0.24677185714244843
1652389140490799900,2.0127998046875,-0.3724255859851837,0.4915400445461273,0.035447899252176285
1652389140500830700,2.022830810546875,-0.4396207928657532,0.4518338143825531,0.09592355787754059
1652389140510861800,2.03286181640625,-0.4194622337818146,0.49092918634414673,-0.01281045563519001
1652389140520892700,2.042892578125,-0.3571539521217346,0.478711873292923,-0.20706559717655182
1652389140530923500,2.052923583984375,-0.2716328501701355,0.37914082407951355,-0.4000990390777588
1652389140540954400,2.062954345703125,-0.21298977732658386,0.22153761982917786,-0.5137199759483337
1652389140550985200,2.072985107421875,-0.13235555589199066,0.13601647317409515,-0.5179960131645203
1652389140561016000,2.08301611328125,-0.12197085469961166,0.12441003322601318,-0.4153706729412079
1652389140571047000,2.093046875,-0.11402960121631622,0.17999878525733948,-0.24738270044326782
1652389140581078000,2.103078125,-0.08715153485536575,0.316832572221756,-0.07023178786039352
1652389140591108900,2.11310888671875,-0.060273464769124985,0.4530555307865143,0.06354770064353943
1652389140601139700,2.1231396484375,-0.01384770404547453,0.5184180736541748,0.1203581690788269
1652389140611170600,2.133170654296875,0.04051930084824562,0.5336897373199463,0.09103663265705109
1652389140621201400,2.143201416015625,0.08572332561016083,0.5257484912872314,0.00673723267391324
1652389140631232300,2.153232177734375,0.10038409382104874,0.498259574174881,-0.11115975677967072
1652389140641263000,2.16326318359375,0.07900381833314896,0.446336030960083,-0.2571565508842468
1652389140651294000,2.1732939453125,0.05273660644888878,0.35409536957740784,-0.4104837477207184
1652389140661325800,2.183325927734375,0.011808635666966438,0.32171952724456787,-0.5430415272712708
1652389140671323400,2.193323486328125,-0.0034629949368536472,0.3571496903896332,-0.6029062867164612
1652389140681321000,2.203321044921875,0.0515148788690567,0.45549899339675903,-0.5705304145812988
1652389140691318500,2.213318603515625,0.18895956873893738,0.6540302038192749,-0.40315335988998413
1652389140701316000,2.223316162109375,0.2585982084274292,0.7902531623840332,-0.26998472213745117
1652389140711313700,2.233313720703125,0.30319133400917053,0.8867698311805725,-0.15514205396175385
1652389140721311200,2.243311279296875,0.32640424370765686,0.9276978373527527,-0.0659557357430458
1652389140731308800,2.253308837890625,0.3294585645198822,0.8543939590454102,-0.006701802834868431
1652389140741306400,2.263306396484375,0.3496171236038208,0.7841445207595825,0.02261972986161709
1652389140751304000,2.273303955078125,0.369775652885437,0.7236688137054443,0.028728382661938667
1652389140761301500,2.283301513671875,0.36366701126098633,0.6448672413825989,0.009791559539735317
1652389140771299000,2.293299072265625,0.3239607810974121,0.6112696528434753,-0.005480071995407343
1652389140781296600,2.303296630859375,0.27631330490112305,0.5740068554878235,-0.02747122012078762
1652389140791294200,2.313294189453125,0.2078963816165924,0.5410201549530029,-0.07206438481807709
1652389140801291800,2.323291748046875,0.12420783936977386,0.5190290212631226,-0.14048129320144653
1652389140811289300,2.333289306640625,0.04846055060625076,0.4933726489543915,-0.24188491702079773
1652389140821287000,2.343286865234375,-0.029119335114955902,0.49459439516067505,-0.4508008360862732
1652389140831284500,2.353284423828125,-0.05660827085375786,0.5385766625404358,-0.5980193614959717
1652389140841282000,2.363281982421875,-0.09203845262527466,0.5917219519615173,-0.7311879992485046
1652389140851279600,2.373279541015625,-0.12258172035217285,0.5642330050468445,-0.8277047276496887
1652389140861277200,2.383277099609375,-0.1402968168258667,0.5526266098022461,-0.8735195994377136
1652389140871274800,2.393274658203125,-0.15373584628105164,0.5068116784095764,-0.8832934498786926
1652389140881272000,2.40327197265625,-0.15190324187278748,0.44939035177230835,-0.8777956366539001
1652389140891270000,2.413269775390625,-0.1500706523656845,0.4054080545902252,-0.8759630918502808
1652389140901267200,2.42326708984375,-0.13357728719711304,0.3046152889728546,-0.8747413158416748
1652389140911264800,2.4332646484375,-0.09692537784576416,0.2795698344707489,-0.8521392941474915
1652389140921262300,2.443262451171875,-0.07004731148481369,0.24169616401195526,-0.8130439519882202
1652389140931260000,2.453260009765625,-0.05599740520119667,0.21054203808307648,-0.7684507369995117
1652389140941257500,2.463257568359375,-0.028508471325039864,0.1543424427509308,-0.7195815443992615
1652389140951255000,2.473255126953125,0.007532579358667135,0.29178711771965027,-0.6126801371574402
1652389140961252600,2.483252685546875,-0.004073860123753548,0.4377838969230652,-0.5106655955314636
1652389140971250200,2.493250244140625,-0.0395040437579155,0.6473106741905212,-0.3658905625343323
1652389140981247700,2.503247802734375,-0.060273464769124985,0.6357042193412781,-0.2235589623451233
1652389140991245300,2.513245361328125,-0.024843279272317886,0.6650257706642151,-0.08428169041872025
1652389141001243000,2.523242919921875,0.02585853636264801,0.6925147175788879,0.035447899252176285
1652389141011240400,2.533240478515625,0.07228429615497589,0.5868350267410278,0.08614971488714218
1652389141021238000,2.543238037109375,0.1223752424120903,0.4377838969230652,0.058660779148340225
1652389141031235600,2.553235595703125,0.17490965127944946,0.3101130723953247,-0.028692951425909996
1652389141041233200,2.563233154296875,0.22988753020763397,0.22092674672603607,-0.14292475581169128
1652389141051230700,2.573230712890625,0.28669798374176025,0.153731569647789,-0.23577627539634705
1652389141061228300,2.583228271484375,0.35755833983421326,0.0883689895272255,-0.27731508016586304
1652389141071225900,2.593225830078125,0.44857731461524963,-0.009980316273868084,-0.22966761887073517
1652389141081223400,2.603223388671875,0.5524243712425232,-0.14192721247673035,-0.058014485985040665
1652389141091221000,2.613220947265625,0.5957958102226257,-0.3172455430030823,0.4178495407104492
1652389141101218600,2.623218505859375,0.44735556840896606,-0.3734451234340668,0.814301073551178
1652389141111216000,2.633216064453125,0.20545290410518646,-0.32885196805000305,1.1893723011016846
1652389141121213700,2.643213623046875,-0.03217365965247154,-0.26226767897605896,1.499081015586853
1652389141131211300,2.653211181640625,-0.18488997220993042,-0.24943949282169342,1.730599045753479
1652389141141208800,2.663208740234375,-0.26430246233940125,-0.309915155172348,1.8662110567092896
1652389141151206100,2.6732060546875,-0.3027869462966919,-0.4278121292591095,1.896754264831543
1652389141161203700,2.68320361328125,-0.30034351348876953,-0.5505960583686829,1.8356677293777466
1652389141171201300,2.693201171875,-0.21848756074905396,-0.6135151982307434,1.7202142477035522
1652389141181198800,2.70319873046875,-0.060273464769124985,-0.5823610424995422,1.5809370279312134
1652389141191196400,2.713196533203125,0.0918319821357727,-0.5438765287399292,1.420890212059021
1652389141201194000,2.723194091796875,0.16147062182426453,-0.6202346682548523,1.2260242700576782
1652389141211191600,2.733191650390625,0.13886860013008118,-0.7943313121795654,1.0390994548797607
1652389141221189000,2.743189208984375,0.13031649589538574,-0.9922516345977783,0.852785587310791
1652389141231186700,2.753186767578125,0.12481870502233505,-0.914671778678894,0.8094142079353333
1652389141241184300,2.763184326171875,-0.040114909410476685,-0.7424077391624451,0.7361103296279907
1652389141251181800,2.773181884765625,-0.19222034513950348,-0.5005050897598267,0.568122386932373
1652389141261179400,2.783179443359375,-0.25941553711891174,-0.352064847946167,0.34576746821403503
1652389141271177000,2.793177001953125,-0.32111290097236633,-0.34901052713394165,0.12463422119617462
1652389141281174500,2.803174560546875,-0.34982356429100037,-0.4375860095024109,-0.03846679627895355
1652389141291171800,2.813171875,-0.3168368637561798,-0.533491849899292,-0.11849014461040497
1652389141301169400,2.82316943359375,-0.26369160413742065,-0.645280122756958,-0.10016418248414993
1652389141311167000,2.8331669921875,-0.2319265902042389,-0.7650097608566284,0.024452324956655502
1652389141321164500,2.84316455078125,-0.24780909717082977,-0.8621373176574707,0.22359439730644226
1652389141331162000,2.853162109375,-0.29484570026397705,-0.8884045481681824,0.4288451373577118
1652389141341159700,2.86315966796875,-0.33943888545036316,-0.8456439971923828,0.5736202001571655
1652389141351157200,2.8731572265625,-0.3388279974460602,-0.5762524008750916,0.5730093121528625
1652389141361154800,2.88315478515625,-0.31561514735221863,-0.38444069027900696,0.48076868057250977
1652389141371152400,2.89315234375,-0.30400869250297546,-0.3929928243160248,0.368369460105896
1652389141381150000,2.90314990234375,-0.22703967988491058,-0.21217671036720276,0.27918314933776855
1652389141391147500,2.9131474609375,-0.15251411497592926,-0.14864672720432281,0.2413094937801361
1652389141401145000,2.92314501953125,-0.05049961805343628,-0.14681413769721985,0.2718527615070343
1652389141411142700,2.933142578125,0.05273660644888878,-0.12665557861328125,0.35615214705467224
1652389141421140200,2.94314013671875,0.16208148002624512,-0.2103441208600998,0.44228413701057434
1652389141431137800,2.9531376953125,0.25676560401916504,-0.3019739091396332,0.45266884565353394
1652389141441135400,2.96313525390625,0.3300694227218628,-0.44064033031463623,0.368369460105896
1652389141451133000,2.9731328125,0.36733222007751465,-0.5677002668380737,0.17472517490386963
1652389141461130500,2.983130615234375,0.39848631620407104,-0.7069775462150574,-0.05312756076455116
1652389141471128000,2.993128173828125,0.4094819128513336,-0.7998291254043579,-0.2382197231054306
1652389141481125600,3.003125732421875,0.389323353767395,-0.8389244675636292,-0.33046039938926697
1652389141491123200,3.013123291015625,0.2903631925582886,-0.7931095361709595,-0.27059558033943176
1652389141501120800,3.023120849609375,0.1975116729736328,-0.7167513966560364,-0.13070744276046753
1652389141511118300,3.033118408203125,0.10893621295690536,-0.6446692943572998,0.04277828335762024
1652389141521116000,3.043115966796875,0.020971614867448807,-0.6153478026390076,0.21443140506744385
1652389141531113500,3.053113525390625,-0.043169233947992325,-0.6245107650756836,0.3714238107204437
1652389141541111000,3.063111083984375,-0.08715153485536575,-0.6403932571411133,0.5045924186706543
1652389141551108600,3.073108642578125,-0.10364490002393723,-0.6184021234512329,0.568122386932373
1652389141561106200,3.083106201171875,-0.09570364654064178,-0.5750306248664856,0.5161988735198975
1652389141571103700,3.093103759765625,-0.05599740520119667,-0.5499851703643799,0.33171752095222473
1652389141581101000,3.10310107421875,0.0008130616624839604,-0.5548721551895142,0.055606454610824585
1652389141591098600,3.1130986328125,0.06312131136655807,-0.49622905254364014,-0.22539155185222626
1652389141601096200,3.12309619140625,0.08144727349281311,-0.30930429697036743,-0.3933795094490051
1652389141611093800,3.13309375,-0.04133664071559906,-0.028917139396071434,-0.39276865124702454
1652389141621091300,3.14309130859375,-0.4738292098045349,0.44877949357032776,-0.32801690697669983
1652389141631089000,3.1530888671875,-0.8012529611587524,0.498259574174881,-0.41659238934516907
1652389141641086500,3.16308642578125,-0.8672264218330383,0.31744346022605896,-0.5748064517974854
1652389141651084000,3.173083984375,-0.7157318592071533,0.15678589046001434,-0.7012556195259094
1652389141661081600,3.18308154296875,-0.5068159699440002,0.01628689095377922,-0.7562334537506104
1652389141671079200,3.1930791015625,-0.3119499385356903,-0.09244711697101593,-0.733020544052124
1652389141681076700,3.20307666015625,-0.1903877556324005,-0.1187143325805664,-0.6236757040023804
1652389141691074300,3.21307421875,-0.1103644073009491,-0.05579520761966705,-0.4355292022228241
1652389141701072000,3.22307177734375,-0.03278452530503273,0.05538226291537285,-0.20034608244895935
1652389141711069400,3.2330693359375,0.024025941267609596,0.2093203067779541,0.03605876490473747
1652389141721067000,3.24306689453125,0.05884525924921036,0.40968412160873413,0.2211509346961975
1652389141731064600,3.253064697265625,0.08938851952552795,0.5202507376670837,0.3030068576335907
1652389141741062100,3.263062255859375,0.1425337940454483,0.5770611763000488,0.24558554589748383
1652389141751059700,3.273059814453125,0.19628994166851044,0.5953871607780457,-0.07572957873344421
1652389141761057300,3.283057373046875,0.2439374178647995,0.6216543316841125,-0.3909360468387604
1652389141771054800,3.293054931640625,0.289141446352005,0.7102298140525818,-0.7018664479255676
1652389141781052400,3.303052490234375,0.26043078303337097,0.8104116916656494,-0.9101715087890625
1652389141791050000,3.313050048828125,0.17063359916210175,0.8934893608093262,-0.9620950222015381
1652389141801047600,3.323047607421875,0.15352937579154968,1.0199384689331055,-0.8649674654006958
1652389141811045000,3.333045166015625,0.1773531138896942,1.1237854957580566,-0.6701014637947083
1652389141821042700,3.343042724609375,0.17063359916210175,1.1201204061508179,-0.43736177682876587
1652389141831040300,3.353040283203125,0.15169677138328552,1.0229928493499756,-0.22966761887073517
1652389141841037800,3.363037841796875,0.1370360106229782,0.8941002488136292,-0.08916860818862915
1652389141851035400,3.373035400390625,0.13398168981075287,0.7713163495063782,-0.031747277826070786
1652389141861033000,3.383032958984375,0.1327599436044693,0.6992342472076416,-0.05923621356487274
1652389141871030500,3.393030517578125,0.1126013994216919,0.6729670166969299,-0.1478116810321808
1652389141881028000,3.403028076171875,0.10099496692419052,0.721225380897522,-0.2834237813949585
1652389141891025700,3.413025634765625,0.08572332561016083,0.8525614142417908,-0.5680869817733765
1652389141901023200,3.423023193359375,0.05701266601681709,0.9154805541038513,-0.7879984974861145
1652389141911020800,3.433020751953125,0.024025941267609596,0.9619063138961792,-1.0005794763565063
1652389141921018000,3.44301806640625,-0.026065010577440262,0.9655714631080627,-1.182006597518921
1652389141931015700,3.453015625,-0.08898413181304932,0.8849372267723083,-1.3096773624420166
1652389141941013200,3.46301318359375,-0.1347990334033966,0.8140769004821777,-1.3530488014221191
1652389141951010800,3.4730107421875,-0.15251411497592926,0.682129979133606,-1.2986817359924316
1652389141961008400,3.48300830078125,-0.1250251829624176,0.5422418713569641,-1.155739426612854
1652389141971006000,3.493005859375,-0.07737769186496735,0.38402777910232544,-0.9810318350791931
1652389141981003500,3.50300341796875,-0.03461712226271629,0.2190941423177719,-0.8533610105514526
1652389141991001000,3.5130009765625,-0.024843279272317886,0.18244223296642303,-0.7965505123138428
1652389142000998700,3.52299853515625,-0.044390968978405,0.17205752432346344,-0.8185417056083679
1652389142010996200,3.532996337890625,-0.06271692365407944,0.21054203808307648,-0.8808499574661255
1652389142020993800,3.542993896484375,-0.10059057176113129,0.27285027503967285,-0.9914165735244751
1652389142030991400,3.552991455078125,-0.13296642899513245,0.5343006253242493,-0.973090648651123
1652389142040989000,3.562989013671875,-0.16350969672203064,0.7444382309913635,-0.8826825618743896
1652389142050986500,3.572986572265625,-0.19832901656627655,0.8110225796699524,-0.7305771708488464
1652389142060984000,3.582984130859375,-0.22765053808689117,1.0101646184921265,-0.5143308043479919
1652389142070981600,3.592981689453125,-0.27346542477607727,1.074305534362793,-0.2632651925086975
1652389142080979200,3.602979248046875,-0.28995880484580994,0.912426233291626,-0.05923621356487274
1652389142090976800,3.612976806640625,-0.25513947010040283,0.7933074831962585,0.06721288710832596
1652389142100974300,3.622974365234375,-0.1958855390548706,0.7450491189956665,0.12707768380641937
1652389142110972000,3.632971923828125,-0.14274026453495026,0.6992342472076416,0.14906883239746094
1652389142120969500,3.642969482421875,-0.11891652643680573,0.6399802565574646,0.15823180973529816
1652389142130967000,3.652967041015625,-0.09448191523551941,0.5343006253242493,0.20404671132564545
1652389142140964600,3.662964599609375,0.022193346172571182,0.37791913747787476,0.33599358797073364
1652389142150962000,3.6729619140625,0.37221911549568176,0.14273598790168762,0.6597521901130676
1652389142160959500,3.68295947265625,0.6391672492027283,-0.1040535643696785,0.9358632564544678
1652389142170957000,3.69295703125,0.8132638335227966,-0.4009340703487396,1.2467937469482422
1652389142180954600,3.70295458984375,0.8383093476295471,-0.6098499894142151,1.574217438697815
1652389142190952200,3.7129521484375,0.7436251640319824,-0.6623843908309937,1.8851478099822998
1652389142200949800,3.72294970703125,0.5933523774147034,-0.6086282134056091,2.128883123397827
1652389142210947300,3.732947265625,0.47484448552131653,-0.561591625213623,2.2632734775543213
1652389142220945000,3.74294482421875,0.41192537546157837,-0.6147369146347046,2.299314498901367
1652389142230942500,3.7529423828125,0.3752734661102295,-0.7558467984199524,2.2528886795043945
1652389142240940000,3.76293994140625,0.3300694227218628,-0.9238347411155701,2.1417112350463867
1652389142250937600,3.7729375,0.2628742456436157,-0.999582052230835,1.9694472551345825
1652389142260935200,3.78293505859375,0.2030094563961029,-0.9195586442947388,1.7202142477035522
1652389142270932700,3.7929326171875,0.14375552535057068,-0.8010507822036743,1.4227229356765747
1652389142280930300,3.802930419921875,0.04113017022609711,-0.6910951137542725,1.136227011680603
1652389142290927900,3.812927978515625,-0.13785335421562195,-0.591524064540863,0.7409972548484802
1652389142300925400,3.822925537109375,-0.21909841895103455,-0.6642169952392578,0.4557231664657593
1652389142310923000,3.832923095703125,-0.22703967988491058,-0.684375524520874,0.12829943001270294
1652389142320920600,3.842920654296875,-0.20871371030807495,-0.6672713160514832,-0.187517911195755
1652389142330918100,3.852918212890625,-0.1903877556324005,-0.7637880444526672,-0.40681853890419006
1652389142340915700,3.862915771484375,-0.1952746957540512,-0.9598758220672607,-0.4947831332683563
1652389142350913300,3.872913330078125,-0.22765053808689117,-1.2408738136291504,-0.4520225524902344
1652389142360910800,3.882910888671875,-0.2960674464702606,-1.379540205001831,-0.27670425176620483
1652389142370908400,3.892908447265625,-0.2869044840335846,-1.2701953649520874,0.05621732026338577
1652389142380906000,3.902906005859375,-0.3082847595214844,-1.0881574153900146,0.49542945623397827
1652389142390903300,3.9129033203125,-0.3528779149055481,-0.9177260994911194,0.882107138633728
1652389142400900900,3.92290087890625,-0.36387351155281067,-0.7301904559135437,1.053760290145874
1652389142410898400,3.9328984375,-0.34004974365234375,-0.5786958336830139,1.0226061344146729
1652389142420896000,3.94289599609375,-0.23314833641052246,-0.4870660603046417,0.7177843451499939
1652389142430893600,3.9528935546875,-0.12319257855415344,-0.5029485821723938,0.43617549538612366
1652389142440891100,3.96289111328125,-0.00040866885683499277,-0.5609807968139648,0.16311873495578766
1652389142450888700,3.972888671875,0.04051930084824562,-0.7424077391624451,-0.05740361660718918
1652389142460853000,3.98285302734375,0.18957041203975677,-0.9519345164299011,-0.18935051560401917
1652389142470817300,3.9928173828125,0.36183440685272217,-0.7564576268196106,-0.268152117729187
1652389142480781300,4.00278125,0.4424686133861542,-0.5896914005279541,-0.26876300573349
1652389142490745600,4.01274560546875,0.4913378655910492,-0.6074065566062927,-0.19362656772136688
1652389142500710000,4.0227099609375,0.5334875583648682,-0.6348954439163208,-0.10932716727256775
1652389142510674200,4.032674072265625,0.5524243712425232,-0.6067956686019897,-0.106883704662323
1652389142520638500,4.042638427734375,0.5450940132141113,-0.6214564442634583,-0.15330946445465088
1652389142530602500,4.0526025390625,0.5157724618911743,-0.6532214283943176,-0.19179397821426392
1652389142540566800,4.06256689453125,0.45346421003341675,-0.6636061668395996,-0.19973520934581757
1652389142550531000,4.072531005859375,0.3514496982097626,-0.636728048324585,-0.15025514364242554
1652389142560495400,4.082495361328125,0.20972897112369537,-0.5786958336830139,-0.03968852758407593
1652389142570459600,4.092459716796875,0.04723881930112839,-0.4876769483089447,0.11119519174098969
1652389142580423700,4.102423583984375,-0.16350969672203064,-0.3050282299518585,0.37020206451416016
1652389142590388000,4.112387939453125,-0.26857852935791016,-0.1993485391139984,0.5412443280220032
1652389142600352300,4.122352294921875,-0.337606281042099,-0.14620326459407806,0.673191249370575
1652389142610316500,4.132316650390625,-0.36631694436073303,-0.17308132350444794,0.7037345170974731
1652389142620280600,4.142280517578125,-0.346769243478775,-0.2867022752761841,0.5962221622467041
1652389142630244900,4.152244873046875,-0.28873705863952637,-0.44980329275131226,0.35126522183418274
1652389142640209200,4.162209228515625,-0.20749199390411377,-0.5933566093444824,0.03056097775697708
1652389142650173400,4.17217333984375,-0.08165374398231506,-0.6507779359817505,-0.2822020351886749
1652389142660137700,4.1821376953125,0.06006699055433273,-0.5628133416175842,-0.5088330507278442
1652389142670101800,4.192101806640625,0.1529185026884079,-0.3062499761581421,-0.6132910251617432
1652389142680066000,4.202066162109375,0.07106255739927292,-0.07778636366128922,-0.5595348477363586
1652389142690030300,4.2120302734375,-0.21237890422344208,0.1745009869337082,-0.4007098972797394
1652389142699994600,4.22199462890625,-0.5385809540748596,0.4530555307865143,-0.3041931688785553
1652389142709959000,4.231958984375,-0.770098865032196,0.588667631149292,-0.359171062707901
1652389142719923000,4.2419228515625,-0.8812763690948486,0.607604444026947,-0.610847532749176
1652389142729887200,4.25188720703125,-0.7792618274688721,0.5171964168548584,-0.7794463634490967
1652389142739851500,4.2618515625,-0.6674734950065613,0.38830384612083435,-0.9003976583480835
1652389142749815800,4.27181591796875,-0.6192151308059692,0.2661307752132416,-0.9278866052627563
1652389142759813400,4.2818134765625,-0.5385809540748596,0.19038347899913788,-0.857026219367981
1652389142769811000,4.29181103515625,-0.39014068245887756,0.17144665122032166,-0.714083731174469
1652389142779808500,4.30180859375,-0.2111571878194809,0.24047444760799408,-0.5491501688957214
1652389142789806000,4.31180615234375,-0.0694364383816719,0.38952553272247314,-0.38299477100372314
1652389142799803600,4.3218037109375,0.017917288467288017,0.5544591546058655,-0.2284458875656128
1652389142809801200,4.33180126953125,0.07472775131464005,0.6430345773696899,-0.10444024205207825
1652389142819798500,4.341798583984375,0.13825774192810059,0.6418129205703735,-0.04152112081646919
1652389142829796000,4.351796142578125,0.2598199248313904,0.6839625835418701,-0.06839919090270996
1652389142839793700,4.361793701171875,0.4216992259025574,0.8336246013641357,-0.2186720371246338
1652389142849791200,4.371791259765625,0.6074022054672241,1.1647135019302368,-0.6004628539085388
1652389142859788800,4.381788818359375,0.5762481093406677,1.3229275941848755,-0.7690616250038147
1652389142869786400,4.391786376953125,0.4412469267845154,1.4701460599899292,-0.7348531484603882
1652389142879784000,4.401783935546875,0.3300694227218628,1.5776584148406982,-0.5100547671318054
1652389142889781500,4.411781494140625,0.26592859625816345,1.5904865264892578,-0.20523300766944885
1652389142899779000,4.421779052734375,0.1932356059551239,1.4884722232818604,0.0549955852329731
1652389142909776600,4.431776611328125,0.10466015338897705,1.27405846118927,0.18938593566417694
1652389142919774200,4.441774169921875,0.006310848519206047,0.9857300519943237,0.1557883471250534
1652389142929771800,4.451771728515625,-0.054775677621364594,0.721836268901825,-0.034190740436315536
1652389142939769300,4.461769287109375,-0.06638211756944656,0.6021066904067993,-0.34634286165237427
1652389142949767000,4.471766845703125,-0.0596625991165638,0.6534193158149719,-0.7201923727989197
1652389142959764500,4.481764404296875,-0.043169233947992325,0.7102298140525818,-1.0885441303253174
1652389142969762000,4.491761962890625,-0.03217365965247154,0.8672221899032593,-1.3866463899612427
1652389142979759600,4.501759521484375,-0.04072577506303787,1.1860939264297485,-1.618164300918579
1652389142989757200,4.511757080078125,-0.03889318183064461,1.205641508102417,-1.6267163753509521
1652389142999754800,4.521754638671875,-0.019956355914473534,1.0871336460113525,-1.53264319896698
1652389143009752000,4.531751953125,0.004478252958506346,0.9338064789772034,-1.352437973022461
1652389143019749600,4.54174951171875,0.010586905293166637,0.7554338574409485,-1.1209200620651245
1652389143029747200,4.551747314453125,0.014862962998449802,0.5269702076911926,-0.9223887920379639
1652389143039744800,4.561744873046875,0.004478252958506346,0.3773082494735718,-0.8093787431716919
1652389143049742300,4.571742431640625,-0.005295590963214636,0.2239810824394226,-0.7928853631019592
1652389143059740000,4.581739990234375,-0.018734626471996307,0.17327925562858582,-0.8295372724533081
1652389143069737500,4.591737548828125,-0.017512895166873932,0.2142072319984436,-0.8777956366539001
1652389143079735000,4.601735107421875,-0.028508471325039864,0.24841567873954773,-0.9333844184875488
1652389143089732600,4.611732666015625,-0.03583885356783867,0.43900564312934875,-0.9229996800422668
1652389143099730200,4.621730224609375,-0.05233221501111984,0.6521976590156555,-0.8301481604576111
1652389143109727700,4.631727783203125,-0.07310163229703903,0.9362499117851257,-0.6584950089454651
1652389143119725300,4.641725341796875,-0.11097528040409088,0.9478563666343689,-0.3353472948074341
1652389143129723000,4.651722900390625,-0.12258172035217285,0.7285557985305786,-0.19973520934581757
1652389143139720400,4.661720458984375,-0.08592980355024338,0.6534193158149719,-0.10444024205207825
1652389143149718000,4.671718017578125,-0.057830002158880234,0.5874459147453308,-0.08794687688350677
1652389143159715600,4.681715576171875,-0.01812376081943512,0.5459070205688477,-0.10260764509439468
1652389143169713200,4.691713134765625,0.020360751077532768,0.45427727699279785,-0.12032274156808853
1652389143179710700,4.701710693359375,0.036243245005607605,0.4371730387210846,-0.08550341427326202
1652389143189708300,4.711708251953125,0.014252097345888615,0.4011319875717163,0.012845885008573532
1652389143199705900,4.721705810546875,0.05701266601681709,0.29850661754608154,0.1655621975660324
1652389143209703400,4.731703369140625,0.19445735216140747,0.21787242591381073,0.3689803183078766
1652389143219701000,4.741700927734375,0.3856581747531891,0.10913840681314468,0.6377610564231873
1652389143229698600,4.751698486328125,0.5554786920547485,-0.09061453491449356,0.9743477702140808
1652389143239696100,4.761696044921875,0.6245064735412598,-0.32274332642555237,1.3463647365570068
1652389143249693700,4.771693603515625,0.5145507454872131,-0.5273832082748413,1.8765957355499268
1652389143259691000,4.78169091796875,0.389934241771698,-0.5677002668380737,2.1411004066467285
1652389143269688600,4.7916884765625,0.2928066551685333,-0.5982435345649719,2.284653902053833
1652389143279686100,4.80168603515625,0.23233099281787872,-0.6599408984184265,2.3078668117523193
1652389143289683700,4.81168359375,0.23233099281787872,-0.7906661033630371,2.226010799407959
1652389143299681300,4.821681396484375,0.27570241689682007,-0.9391064047813416,2.0794031620025635
1652389143309678800,4.831678955078125,0.3044130802154541,-1.0386773347854614,1.8833153247833252
1652389143319676400,4.841676513671875,0.2787567377090454,-1.075329303741455,1.6469104290008545
1652389143329674000,4.851674072265625,0.2335527241230011,-1.0453968048095703,1.3995100259780884
1652389143339671600,4.861671630859375,0.1736879199743271,-0.9494910836219788,1.1905940771102905
1652389143349669000,4.871669189453125,0.11137966811656952,-0.8798524141311646,1.0415430068969727
1652389143359666700,4.881666748046875,0.0313563235104084,-0.8731329441070557,0.8808853626251221
1652389143369664300,4.891664306640625,-0.0798211544752121,-0.924445629119873,0.6218785643577576
1652389143379661800,4.901661865234375,-0.14274026453495026,-0.9415497779846191,0.1008104756474495
1652389143389659400,4.911659423828125,-0.1500706523656845,-1.0044689178466797,-0.17896580696105957
1652389143399657000,4.921656982421875,-0.17022919654846191,-1.1816198825836182,-0.3353472948074341
1652389143409654500,4.931654541015625,-0.2013833373785019,-1.397255301475525,-0.3884925842285156
1652389143419652000,4.941652099609375,-0.1964964121580124,-1.5304239988327026,-0.31702136993408203
1652389143429649700,4.951649658203125,-0.19222034513950348,-1.463228702545166,-0.07206438481807709
1652389143439647200,4.961647216796875,-0.23314833641052246,-1.2573671340942383,0.3182784914970398
1652389143449644800,4.971644775390625,-0.27896323800086975,-1.017907977104187,0.7037345170974731
1652389143459642400,4.981642333984375,-0.29851090908050537,-0.7766162157058716,0.8857723474502563
1652389143469640000,4.991639892578125,-0.2832392752170563,-0.6061848402023315,0.8601159453392029
1652389143479637500,5.001637451171875,-0.23070485889911652,-0.5481525659561157,0.7031235694885254
1652389143489635000,5.011635009765625,-0.15251411497592926,-0.5585373044013977,0.4838230013847351
1652389143499632600,5.021632568359375,-0.06821471452713013,-0.6129043102264404,0.26452237367630005
1652389143509630200,5.031630126953125,0.11626659333705902,-0.713697075843811,0.029339246451854706
1652389143519627800,5.041627685546875,0.24027223885059357,-0.8199875950813293,-0.034801606088876724
1652389143529625300,5.051625244140625,0.36366701126098633,-0.6837646961212158,-0.06901005655527115
1652389143539623000,5.061622802734375,0.4559076726436615,-0.48523348569869995,-0.10321851074695587
1652389143549620500,5.071620361328125,0.5432614088058472,-0.5084463357925415,-0.13315090537071228
1652389143559618000,5.0816181640625,0.6300042867660522,-0.5628133416175842,-0.19179397821426392
1652389143569615600,5.09161572265625,0.6611583828926086,-0.6532214283943176,-0.27609339356422424
1652389143579613200,5.10161328125,0.6507737040519714,-0.7387425303459167,-0.3506189286708832
1652389143589610800,5.11161083984375,0.6074022054672241,-0.7650097608566284,-0.38665997982025146
1652389143599608000,5.121608154296875,0.5188267827033997,-0.713697075843811,-0.37810787558555603
1652389143609605600,5.131605712890625,0.3838255703449249,-0.6061848402023315,-0.31763219833374023
1652389143619603200,5.141603271484375,0.20484206080436707,-0.46996185183525085,-0.1771332025527954
1652389143629600800,5.151600830078125,-0.019956355914473534,-0.3264085054397583,0.05927164480090141
1652389143639598300,5.161598388671875,-0.22459620237350464,-0.19079643487930298,0.3427131175994873
1652389143649596000,5.171595947265625,-0.470164030790329,-0.046021364629268646,0.7385537624359131
1652389143659593500,5.181593505859375,-0.5648481249809265,0.038278039544820786,0.9370850324630737
1652389143669591000,5.191591064453125,-0.5837849974632263,0.0779842734336853,1.0195518732070923
1652389143679588600,5.201588623046875,-0.5214767456054688,-0.031971465796232224,0.9303655028343201
1652389143689586200,5.211586181640625,-0.3883081078529358,-0.2964760959148407,0.6646391153335571
1652389143699583700,5.221583740234375,-0.2013833373785019,-0.5866370797157288,0.2516942024230957
1652389143709581300,5.231581298828125,-0.0010195340728387237,-0.6874298453330994,-0.22600242495536804
1652389143719579000,5.241578857421875,0.09794063866138458,-0.5603698492050171,-0.5986302495002747
1652389143729576400,5.251576416015625,0.007532579358667135,-0.38932764530181885,-0.7666181921958923
1652389143739574000,5.261573974609375,-0.2526960074901581,-0.1993485391139984,-0.7495139241218567
1652389143749571600,5.271571533203125,-0.4884899854660034,0.00956737156957388,-0.7000339031219482
1652389143759569200,5.281569091796875,-0.6259347200393677,0.16717061400413513,-0.7336314916610718
1652389143769566700,5.291566650390625,-0.6497583985328674,0.2600221335887909,-0.7702834010124207
1652389143779564300,5.301564208984375,-0.5599612593650818,0.17999878525733948,-0.7085859775543213
1652389143789561900,5.311561767578125,-0.5208658576011658,0.06576697528362274,-0.6035171747207642
1652389143799559400,5.321559326171875,-0.5172007083892822,0.00712391035631299,-0.47890064120292664
1652389143809557000,5.331556884765625,-0.49276605248451233,-0.02158675529062748,-0.38177308440208435
1652389143819554600,5.341554443359375,-0.4219056963920593,-0.0069259898737072945,-0.32190826535224915
1652389143829552000,5.35155224609375,-0.3284432888031006,0.11036013811826706,-0.27609339356422424
1652389143839549700,5.3615498046875,-0.2508634328842163,0.31377825140953064,-0.23027849197387695
1652389143849547000,5.371547119140625,-0.16412055492401123,0.4964269697666168,-0.18568532168865204
1652389143859544600,5.381544677734375,-0.03217365965247154,0.5721742510795593,-0.1728571504354477
1652389143869542100,5.391542236328125,0.13520342111587524,0.5764502882957458,-0.23027849197387695
1652389143879539700,5.401539794921875,0.3245716691017151,0.6137130856513977,-0.3946012258529663
1652389143889537300,5.411537353515625,0.5078312158584595,0.7908639907836914,-0.6474994421005249
1652389143899534800,5.421534912109375,0.6232847571372986,0.9906169176101685,-0.9022302031517029
1652389143909532700,5.43153271484375,0.634891152381897,1.0981292724609375,-1.0518921613693237
1652389143919530000,5.441530029296875,0.5017225742340088,1.2099175453186035,-0.944990873336792
1652389143929527600,5.451527587890625,0.4064275920391083,1.2606194019317627,-0.6872056722640991
1652389143939525000,5.461525146484375,0.31846296787261963,1.2135827541351318,-0.37627527117729187
1652389143949522700,5.471522705078125,0.22988753020763397,1.0767488479614258,-0.10810542851686478
1652389143959520300,5.481520263671875,0.15108591318130493,0.9044849872589111,0.05194126069545746
1652389143969517800,5.491517822265625,0.06373218446969986,0.7053428888320923,0.08370625227689743
1652389143979515400,5.501515380859375,0.006310848519206047,0.5440744757652283,-0.010977859608829021
1652389143989513000,5.511512939453125,-0.009571647271513939,0.4823770821094513,-0.21500685811042786
1652389143999510500,5.521510498046875,0.007532579358667135,0.5257484912872314,-0.47890064120292664
1652389144009508000,5.531508056640625,0.033188920468091965,0.6986233592033386,-0.7605095505714417
1652389144019505700,5.541505615234375,0.05273660644888878,0.8397332429885864,-1.026235818862915
1652389144029503200,5.551503173828125,0.04968228191137314,0.9386934041976929,-1.254699468612671
1652389144039500800,5.561500732421875,0.02280420996248722,1.0034451484680176,-1.4324612617492676
1652389144049498400,5.571498291015625,-0.05538653954863548,0.9600736498832703,-1.5827341079711914
1652389144059496000,5.581495849609375,-0.09203845262527466,0.8006379008293152,-1.57051682472229
1652389144069493500,5.591493408203125,-0.10792095214128494,0.5929436683654785,-1.4605610370635986
1652389144079491000,5.601490966796875,-0.09448191523551941,0.5104768872261047,-1.2644734382629395
1652389144089488600,5.611488525390625,-0.08409720659255981,0.40418630838394165,-1.073272466659546
1652389144099486000,5.62148583984375,-0.09753623604774475,0.294230580329895,-0.9425473809242249
1652389144109483500,5.6314833984375,-0.12074912339448929,0.2398635745048523,-0.8924564123153687
1652389144119481000,5.641481201171875,-0.14274026453495026,0.24719394743442535,-0.90467369556427
1652389144129478700,5.651478759765625,-0.17022919654846191,0.304004430770874,-0.9352169632911682
1652389144139476200,5.661476318359375,-0.20443767309188843,0.5678982138633728,-0.8942890167236328
1652389144149473800,5.671473876953125,-0.2417004406452179,0.7090080380439758,-0.7977722883224487
1652389144159471400,5.681471435546875,-0.27957409620285034,0.9246435165405273,-0.6383364796638489
1652389144169469000,5.691468994140625,-0.29362398386001587,0.931363046169281,-0.4269770681858063
1652389144179466500,5.701466552734375,-0.2557503283023834,0.7035103440284729,-0.19545917212963104
1652389144189464000,5.711464111328125,-0.14823804795742035,0.6650257706642151,-0.10444024205207825
1652389144199461600,5.721461669921875,-0.05844086781144142,0.7358861565589905,-0.097109854221344
1652389144209459200,5.731459228515625,0.006921714171767235,0.6143239736557007,-0.11910100281238556
1652389144219456800,5.741456787109375,0.036243245005607605,0.5837807059288025,-0.09588813036680222
1652389144229454300,5.751454345703125,0.014862962998449802,0.5685091018676758,-0.0018148806411772966
1652389144239452000,5.761451904296875,-0.0022412645630538464,0.5019247531890869,0.20404671132564545
1652389144249449500,5.771449462890625,0.027080267667770386,0.42373400926589966,0.510701060295105
1652389144259447000,5.781447021484375,0.14619898796081543,0.3724213242530823,0.8808853626251221
1652389144269444600,5.791444580078125,0.3942102789878845,0.30278268456459045,1.3121562004089355
1652389144279442200,5.801442138671875,0.6776517629623413,0.06515610218048096,1.767250895500183
1652389144289439700,5.811439697265625,0.8835133910179138,-0.2256157547235489,2.187526226043701
1652389144299437300,5.821437255859375,0.9445998668670654,-0.42964473366737366,2.533275842666626
1652389144309435000,5.831434814453125,0.893287181854248,-0.494396448135376,2.770291566848755
1652389144319432400,5.841432373046875,0.807155191898346,-0.4113187789916992,2.865586757659912
1652389144329430000,5.851429931640625,0.7424034476280212,-0.5096681118011475,2.7861740589141846
1652389144339427600,5.861427490234375,0.6385564208030701,-0.8083811402320862,2.6346795558929443
1652389144349425000,5.8714248046875,0.5041660070419312,-1.1125919818878174,2.413546323776245
1652389144359422500,5.88142236328125,0.41742315888404846,-1.2207151651382446,2.119720220565796
1652389144658283800,6.18028369140625,-0.018734626471996307,-0.39543628692626953,0.20465758442878723
1652389144668280800,6.19028076171875,-0.13418816030025482,-0.4314773380756378,0.3414914011955261
1652389144678278400,6.2002783203125,-0.22398534417152405,-0.4986725151538849,0.47710347175598145
1652389144688275700,6.210275634765625,-0.27529802918434143,-0.534102737903595,0.5846157670021057
1652389144698523400,6.2205234375,-0.2105463147163391,-0.5090572237968445,0.5504072904586792
1652389144708721000,6.230720947265625,-0.1201382577419281,-0.5609807968139648,0.3573738634586334
1652389144718885000,6.240885009765625,-0.021788951009511948,-0.6709365248680115,0.0751541331410408
1652389144729025300,6.251025390625,0.07961467653512955,-0.7851683497428894,-0.23027849197387695
1652389144739147800,6.261147705078125,0.17063359916210175,-0.8444222211837769,-0.481954962015152
1652389144749256400,6.27125634765625,0.2335527241230011,-0.7674532532691956,-0.6084040403366089
1652389144759353900,6.281353759765625,0.20972897112369537,-0.494396448135376,-0.6493320465087891
1652389144769442300,6.2914423828125,0.07656034827232361,-0.19629421830177307,-0.6090149283409119
1652389144779523000,6.301523193359375,-0.22520707547664642,0.032780252397060394,-0.4807332456111908
1652389144789597700,6.31159765625,-0.59844571352005,0.24047444760799408,-0.3542841076850891
1652389144799666700,6.321666748046875,-0.8702807426452637,0.4212905466556549,-0.329849511384964
1652389144809730800,6.331730712890625,-0.9912320971488953,0.5544591546058655,-0.368334025144577
1652389144819790800,6.341790771484375,-0.9887886643409729,0.5288028717041016,-0.45263341069221497
1652389144829847300,6.351847412109375,-0.9869560599327087,0.4426708519458771,-0.5186069011688232
1652389144839900200,6.361900146484375,-0.8770003318786621,0.29728490114212036,-0.5864129066467285
1652389144849950500,6.371950439453125,-0.6442606449127197,0.12502090632915497,-0.6529972553253174
1652389144859998000,6.381998046875,-0.40113624930381775,0.05477140098810196,-0.6914817690849304
1652389144870043100,6.392043212890625,-0.19710728526115417,0.11769051849842072,-0.6768209934234619
1652389144880086000,6.4020859375,-0.051721349358558655,0.2245919406414032,-0.6041280031204224
1652389144890127000,6.412127197265625,0.06617564707994461,0.3296607732772827,-0.4911179542541504
1652389144900166400,6.42216650390625,0.21583762764930725,0.43045350909233093,-0.3610036373138428
1652389144910204000,6.432203857421875,0.4204774796962738,0.5391875505447388,-0.29075413942337036
1652389144920239900,6.442239990234375,0.5939632058143616,0.6399802565574646,-0.37810787558555603
1652389144930274600,6.452274658203125,0.6892581582069397,0.8207963705062866,-0.6230648159980774
1652389144940307700,6.4623076171875,0.7008646130561829,1.025436282157898,-0.9083389043807983
1652389144950339800,6.47233984375,0.6141217947006226,1.1793742179870605,-1.0757158994674683
1652389144960370700,6.48237060546875,0.3398432731628418,1.3534709215164185,-0.8716869950294495
1652389144970401500,6.492401611328125,0.18590523302555084,1.432883381843567,-0.5039461255073547
1652389144980432400,6.502432373046875,0.08022554218769073,1.4408246278762817,-0.106883704662323
1652389144990463200,6.512463134765625,0.0008130616624839604,1.351027488708496,0.17716863751411438
1652389145000460800,6.522460693359375,-0.09142758697271347,1.180596113204956,0.2736853361129761
1652389145010458400,6.532458251953125,-0.1500706523656845,0.9845082759857178,0.18388815224170685
1652389145020456000,6.5424560546875,-0.14396201074123383,0.8556157350540161,-0.07023178786039352
1652389145030453500,6.55245361328125,-0.09203845262527466,0.8415658473968506,-0.4269770681858063
1652389145040451000,6.562451171875,-0.02362154796719551,0.90326327085495,-0.8228177428245544
1652389145050448600,6.57244873046875,0.035632383078336716,1.0535361766815186,-1.1972781419754028
1652389145060446200,6.5824462890625,0.06800823658704758,1.162270188331604,-1.5014890432357788
1652389145070443800,6.59244384765625,0.06922997534275055,1.1610482931137085,-1.6975767612457275
1652389145080441300,6.60244140625,0.03502151370048523,1.0584229230880737,-1.7672154903411865
1652389145090439000,6.61243896484375,-0.03889318183064461,0.8293485045433044,-1.6254947185516357
1652389145100436500,6.6224365234375,-0.06760384142398834,0.6772431135177612,-1.3689312934875488
1652389145110434000,6.63243408203125,-0.09326018393039703,0.4414491057395935,-1.0879331827163696
1652389145120431600,6.642431640625,-0.12074912339448929,0.3247738480567932,-0.8930672407150269
1652389145130429200,6.65242919921875,-0.16778574883937836,0.2245919406414032,-0.8203743100166321
1652389145140426800,6.6624267578125,-0.2111571878194809,0.18610742688179016,-0.8325915932655334
1652389145150424000,6.672424072265625,-0.23253746330738068,0.17755530774593353,-0.9071171879768372
1652389145160421600,6.682421630859375,-0.21909841895103455,0.30950218439102173,-0.9547646641731262
1652389145170419200,6.692419189453125,-0.21726582944393158,0.4811553359031677,-0.9565972089767456
1652389145180416800,6.702416748046875,-0.22276361286640167,0.6717453002929688,-0.8912346959114075
1652389145190414300,6.712414306640625,-0.21543322503566742,0.8043030500411987,-0.7715050578117371
1652389145200412000,6.722411865234375,-0.2105463147163391,1.0950748920440674,-0.6151235699653625
1652389145210409500,6.732409423828125,-0.2007724791765213,1.0956858396530151,-0.4562986195087433
1652389145220407000,6.742406982421875,-0.15434670448303223,0.7010668516159058,-0.3408450782299042
1652389145230404600,6.752404541015625,-0.054775677621364594,0.6253195405006409,-0.29686278104782104
1652389145240402200,6.762402099609375,0.041741032153367996,0.5440744757652283,-0.28708896040916443
1652389145250399700,6.772399658203125,0.11626659333705902,0.46527284383773804,-0.2895324230194092
1652389145260397300,6.782397216796875,0.14619898796081543,0.41884708404541016,-0.25654569268226624
1652389145270395000,6.792394775390625,0.13398168981075287,0.34371066093444824,-0.147200807929039
1652389145280392400,6.802392333984375,0.15597283840179443,0.20015732944011688,0.0549955852329731
1652389145290390000,6.81239013671875,0.24210482835769653,0.07248649001121521,0.33477187156677246
1652389145300387600,6.8223876953125,0.399097204208374,-0.04113444685935974,0.6847976446151733
1652389145310385000,6.832385009765625,0.5951849222183228,-0.17308132350444794,1.0684210062026978
1652389145320382500,6.842382568359375,0.723466694355011,-0.3514539897441864,1.441659688949585
1652389145330380000,6.852380126953125,0.7295753359794617,-0.46935099363327026,1.7623639106750488
1652389145340377600,6.862377685546875,0.6226738691329956,-0.4840117394924164,2.0048773288726807
1652389145350375200,6.872375244140625,0.5011116862297058,-0.4577445387840271,2.15331768989563
1652389145360372700,6.882372802734375,0.42231008410453796,-0.534102737903595,2.1863043308258057
1652389145370370300,6.892370361328125,0.39787545800209045,-0.6568865776062012,2.0995614528656006
1652389145380368000,6.902367919921875,0.3398432731628418,-0.8517526388168335,1.9670038223266602
1652389145390365400,6.912365478515625,0.28058934211730957,-1.0001928806304932,1.786187767982483
1652389145400363000,6.922363037109375,0.2732589840888977,-0.9843103885650635,1.5589457750320435
1652389145410360600,6.932360595703125,0.29708269238471985,-0.8566395044326782,1.3500299453735352
1652389145420358100,6.942358154296875,0.24760261178016663,-0.7668423652648926,1.2223591804504395
1652389145430355700,6.952355712890625,0.1071036159992218,-0.7601228356361389,1.138670563697815
1652389145440353300,6.962353271484375,-0.06638211756944656,-0.8010507822036743,0.9786238670349121
1652389145450350800,6.972350830078125,-0.17267267405986786,-0.8603047728538513,0.6774672865867615
1652389145460348400,6.982348388671875,-0.16839660704135895,-0.9824777841567993,0.29995253682136536
1652389145470346000,6.992345947265625,-0.11769479513168335,-1.0771619081497192,-0.06839919090270996
1652389145480343600,7.002343505859375,-0.07676682621240616,-1.2158284187316895,-0.33046039938926697
1652389145490341000,7.012341064453125,-0.07798855751752853,-1.453454852104187,-0.45935294032096863
1652389145500338700,7.022338623046875,-0.09875797480344772,-1.4565092325210571,-0.3341255784034729
1652389145510336300,7.032336181640625,-0.1402968168258667,-1.2011675834655762,0.0006285803392529488
1652389145520333800,7.042333740234375,-0.2160440981388092,-0.8419787883758545,0.500927209854126
1652389145530331400,7.052331298828125,-0.28446099162101746,-0.5053920149803162,0.9499131441116333
1652389145540295400,7.06229541015625,-0.31378254294395447,-0.2647111117839813,1.1777658462524414
1652389145550259700,7.072259765625,-0.3076739013195038,-0.10222096741199493,1.201589584350586
1652389145560224000,7.08222412109375,-0.24475476145744324,-0.13581855595111847,1.091633915901184
1652389145570188300,7.092188232421875,-0.15190324187278748,-0.27265238761901855,0.9126504063606262
1652389145580152600,7.102152587890625,-0.03828231245279312,-0.4785139560699463,0.7171735167503357
1652389145590116600,7.11211669921875,0.07472775131464005,-0.6837646961212158,0.5314704775810242
1652389145600081000,7.122080810546875,0.18651609122753143,-0.8254854083061218,0.3622607886791229
1652389145610045200,7.132045166015625,0.2903631925582886,-1.0069124698638916,0.24497468769550323
1652389145620009500,7.142009521484375,0.42292097210884094,-0.9678170084953308,0.16922739148139954
1652389145629973800,7.151973876953125,0.5267680883407593,-0.7833356857299805,0.09653442353010178
1652389145639937800,7.161937744140625,0.5964066982269287,-0.7503489851951599,0.038502223789691925
1652389145649902000,7.171902099609375,0.6269499659538269,-0.8432005047798157,-0.06901005655527115
1652389145659866400,7.181866455078125,0.6074022054672241,-0.9030653238296509,-0.19912436604499817
1652389145669830700,7.19183056640625,0.5585330128669739,-0.9806451797485352,-0.34267768263816833
1652389145679794700,7.201794677734375,0.46873584389686584,-1.0063015222549438,-0.45813122391700745
1652389145689759000,7.211759033203125,0.34778451919555664,-0.9836995005607605,-0.4966157078742981
1652389145699723300,7.22172314453125,0.1926247626543045,-0.9207804203033447,-0.4098728597164154
1652389145709687600,7.2316875,0.02280420996248722,-0.798607349395752,-0.17530061304569244
1652389145719651800,7.24165185546875,-0.11097528040409088,-0.6483344435691833,0.1509014219045639
1652389145729616000,7.251615966796875,-0.2062702625989914,-0.5096681118011475,0.48260125517845154
1652389145739580200,7.261580078125,-0.25391775369644165,-0.3905493915081024,0.7715405225753784
1652389145749544400,7.27154443359375,-0.2606372535228729,-0.31480205059051514,0.9541891813278198
1652389145759508700,7.2815087890625,-0.23986783623695374,-0.3257976472377777,0.9480805397033691
1652389145769472800,7.29147265625,-0.17206180095672607,-0.4412511885166168,0.7416080832481384
1652389145779437000,7.30143701171875,-0.051721349358558655,-0.6238998770713806,0.3921931982040405
1652389145789401300,7.3114013671875,0.13337081670761108,-0.8578612804412842,-0.2180611789226532
1652389145799365600,7.32136572265625,0.20606377720832825,-0.8535851836204529,-0.4911179542541504
1652389145809330000,7.331329833984375,0.24027223885059357,-0.6147369146347046,-0.6059606075286865
1652389145819294000,7.3412939453125,0.18162918090820312,-0.27753931283950806,-0.5314350724220276
1652389145829258200,7.35125830078125,-0.09936883300542831,0.02850419469177723,-0.3041931688785553
1652389145839255800,7.361255859375,-0.5434678792953491,0.31255650520324707,-0.11360321938991547
1652389145849253400,7.37125341796875,-0.89349365234375,0.5452961921691895,-0.10260764509439468
1652389145859251000,7.3812509765625,-1.1017986536026,0.6192108988761902,-0.21073079109191895
1652389145869248500,7.39124853515625,-1.1592200994491577,0.5116986036300659,-0.38299477100372314
1652389145879246000,7.40124609375,-1.111572504043579,0.40418630838394165,-0.5980193614959717
1652389145889243600,7.41124365234375,-1.019331932067871,0.23375491797924042,-0.8142656683921814
1652389145899241200,7.4212412109375,-0.8134703636169434,-0.008758585900068283,-1.0018012523651123
1652389145909238800,7.43123876953125,-0.5361375212669373,-0.13765116035938263,-1.1062592267990112
1652389145919236400,7.441236328125,-0.21237890422344208,0.010178237222135067,-1.038453221321106
1652389145929234000,7.45123388671875,-0.06271692365407944,0.2099311649799347,-0.8710761070251465
1652389145939231500,7.4612314453125,0.08266900479793549,0.3962450921535492,-0.6572732925415039
1652389145949229000,7.47122900390625,0.26226338744163513,0.5294137001037598,-0.4501899778842926
1652389145959226600,7.4812265625,0.43941429257392883,0.6100479364395142,-0.3035823106765747
1652389145969224200,7.49122412109375,0.5560895800590515,0.6674692630767822,-0.3182430863380432
1652389145979221800,7.5012216796875,0.6037370562553406,0.8091899752616882,-0.4898962080478668
1652389145989219300,7.51121923828125,0.5774698257446289,0.9545759558677673,-0.7299662232398987
1652389145999217000,7.521216796875,0.4858400523662567,1.0675859451293945,-0.8851260542869568
1652389146009214500,7.53121435546875,0.35206058621406555,1.1854828596115112,-0.857026219367981
1652389146019212000,7.5412119140625,0.21950282156467438,1.2868865728378296,-0.6481102705001831
1652389146029209600,7.551209716796875,0.13947947323322296,1.3516383171081543,-0.3481754660606384
1652389146039207200,7.561207275390625,0.07106255739927292,1.3235385417938232,-0.07939476519823074
1652389146049204700,7.571204833984375,-0.05844086781144142,1.120731234550476,0.08676058053970337
1652389146059202300,7.581202392578125,-0.11097528040409088,0.9564085006713867,-0.0005931501509621739
1652389146069200000,7.591199951171875,-0.0902058556675911,0.8317919969558716,-0.2333328127861023
1652389146079197200,7.601197265625,-0.027897603809833527,0.7493252158164978,-0.5448740720748901
1652389146089194800,7.61119482421875,0.04601708799600601,0.7951400876045227,-0.8747413158416748
1652389146099192300,7.6211923828125,0.09549717605113983,0.8971546292304993,-1.155739426612854
1652389146109190000,7.63118994140625,0.10832534730434418,1.0181058645248413,-1.3451075553894043
1652389146119187500,7.6411875,0.0869450643658638,1.0529252290725708,-1.4342938661575317
1652389146129185000,7.65118505859375,0.038686707615852356,1.0596448183059692,-1.4501763582229614
1652389146139182600,7.6611826171875,-0.024843279272317886,1.0071102380752563,-1.4129135608673096
1652389146149180200,7.67118017578125,-0.07310163229703903,0.8232398629188538,-1.330446720123291
1652389146159177700,7.681177734375,-0.06516038626432419,0.6839625835418701,-1.1930021047592163
1652389146169175300,7.69117529296875,-0.06577124446630478,0.4683271646499634,-1.073272466659546
1652389146179172900,7.7011728515625,-0.06699298322200775,0.24719394743442535,-1.0005794763565063
1652389146189170400,7.71117041015625,-0.09387104958295822,0.15495328605175018,-0.9755340814590454
1652389146199168000,7.72116796875,-0.10853181779384613,0.14273598790168762,-0.9950817823410034
1652389146209165600,7.73116552734375,-0.1097535490989685,0.3156108558177948,-0.9755340814590454
1652389146219163100,7.7411630859375,-0.11708392947912216,0.5355223417282104,-0.9071171879768372
1652389146229160700,7.75116064453125,-0.135409876704216,0.7639859914779663,-0.7867767214775085
1652389146239158300,7.761158203125,-0.15862277150154114,0.9612954258918762,-0.6456668972969055
1652389146249155800,7.77115576171875,-0.18794430792331696,1.1738766431808472,-0.4850092828273773
1652389146259153400,7.7811533203125,-0.20016160607337952,1.0236036777496338,-0.36283624172210693
1652389146269151000,7.79115087890625,-0.16473141312599182,0.9496889710426331,-0.2577674388885498
1652389146279148500,7.8011484375,-0.0999797061085701,0.779257595539093,-0.21073079109191895
1652389146289146000,7.81114599609375,-0.027286740019917488,0.6937364339828491,-0.19484829902648926
1652389146299143700,7.821143798828125,0.02585853636264801,0.6210434436798096,-0.1771332025527954
1652389146309174500,7.831174560546875,0.0667865052819252,0.5129203200340271,-0.0665665939450264
1652389146319205400,7.841205322265625,0.08877765387296677,0.4811553359031677,0.06599116325378418
1652389146329236200,7.851236328125,0.12848390638828278,0.40968412160873413,0.24314208328723907
1652389146339267000,7.86126708984375,0.21705935895442963,0.29667404294013977,0.46061012148857117
1652389146349298000,7.8712978515625,0.37160828709602356,0.1885508894920349,0.7251147627830505
1652389146359329000,7.8813291015625,0.5640308260917664,0.053549665957689285,1.0482624769210815
1652389146369360000,7.89135986328125,0.6990320682525635,-0.12665557861328125,1.401342511177063
1652389146379390700,7.901390625,0.7246883511543274,-0.2555481493473053,1.7397619485855103
1652389146389421600,7.911421630859375,0.6538280248641968,-0.28303706645965576,2.0128188133239746
1652389146399452400,7.921452392578125,0.5169941782951355,-0.19812682271003723,2.183861017227173
1652389146409483300,7.931483154296875,0.40826019644737244,-0.09244711697101593,2.24800181388855
1652389146419514000,7.94151416015625,0.34228673577308655,-0.21339844167232513,2.1698110103607178
1652389146429545200,7.951545166015625,0.3233499228954315,-0.5084463357925415,2.059244394302368
1652389146439576000,7.961576171875,0.28181105852127075,-0.7918878197669983,1.9108041524887085
1652389146449607000,7.97160693359375,0.24577002227306366,-0.9256672859191895,1.7128839492797852
1652389146459637800,7.9816376953125,0.22011367976665497,-0.9800342917442322,1.5076332092285156
1652389146469668600,7.991668701171875,0.16452494263648987,-0.9629301428794861,1.3457539081573486
1652389146479699500,8.001699462890626,0.05456920340657234,-0.8890153765678406,1.2510696649551392
1652389146489730300,8.011730224609375,-0.07126903533935547,-0.7674532532691956,1.1557748317718506
1652389146499761200,8.02176123046875,-0.16717487573623657,-0.6929276585578918,0.9383066892623901
1652389146509792300,8.031792236328124,-0.21848756074905396,-0.6697148084640503,0.5723984241485596
1652389146519823000,8.041822998046875,-0.19710728526115417,-0.7271361351013184,0.15884268283843994
1652389146529854000,8.05185400390625,-0.15190324187278748,-0.8242636919021606,-0.1930156946182251
1652389146539884800,8.061884765625,-0.135409876704216,-1.0631119012832642,-0.42270103096961975
1652389146549915600,8.07191552734375,-0.13357728719711304,-1.3380013704299927,-0.5057787299156189
1652389146559946500,8.081946533203125,-0.12685777246952057,-1.5102653503417969,-0.27731508016586304
1652389146569977300,8.091977294921875,-0.16289882361888885,-1.3642685413360596,0.1405167281627655
1652389146580008400,8.102008544921874,-0.22948314249515533,-0.999582052230835,0.6310415267944336
1652389146590039300,8.112039306640625,-0.28507187962532043,-0.5597590208053589,0.9541891813278198
1652389146600103400,8.122103515625,-0.2875153124332428,-0.3465670645236969,1.062312364578247
1652389146610134300,8.13213427734375,-0.2520851492881775,-0.26287853717803955,0.9969497919082642
1652389146620165000,8.1421650390625,-0.19405294954776764,-0.2964760959148407,0.8252966403961182
1652389146630196000,8.152196044921874,-0.10731008648872375,-0.4119296669960022,0.6151589751243591
1652389146640226800,8.162226806640625,0.0038673877716064453,-0.5579264760017395,0.419682115316391
1652389146650258000,8.1722578125,0.13398168981075287,-0.6770451664924622,0.26879844069480896
1652389146660288800,8.182288818359375,0.32701510190963745,-0.7619554400444031,0.09286922961473465
1652389146670319600,8.192319580078125,0.43880343437194824,-0.7582902312278748,-0.023806029930710793
1652389146680350500,8.2023505859375,0.5444831252098083,-0.7808922529220581,-0.14048129320144653
1652389146690381300,8.21238134765625,0.6501628160476685,-0.807770311832428,-0.24005232751369476
1652389146700412200,8.222412109375,0.7014755010604858,-0.8615264892578125,-0.3133561611175537
1652389146710443000,8.232443115234375,0.712471067905426,-0.9103956818580627,-0.3603927791118622
1652389146720507400,8.24250732421875,0.6855930089950562,-0.9048978686332703,-0.3842165172100067
1652389146730571500,8.252571533203126,0.6074022054672241,-0.8236528038978577,-0.3958229720592499
1652389146740635600,8.2626357421875,0.4870617985725403,-0.703923225402832,-0.3738318085670471
1652389146750700000,8.272699951171875,0.33312374353408813,-0.5677002668380737,-0.28159114718437195
1652389146760764200,8.28276416015625,0.13153822720050812,-0.42903387546539307,-0.09100120514631271
1652389146770828300,8.292828369140626,-0.16839660704135895,-0.2720414996147156,0.34943264722824097
1652389146780892700,8.302892578125,-0.28995880484580994,-0.2054571956396103,0.651810884475708
1652389146790956800,8.312956787109375,-0.3113390803337097,-0.13765116035938263,0.9034874439239502
1652389146801021000,8.32302099609375,-0.30461958050727844,-0.14131633937358856,1.0500950813293457
1652389146811085300,8.333085205078126,-0.26980024576187134,-0.2402765154838562,1.0201627016067505
1652389146821149400,8.3431494140625,-0.18794430792331696,-0.4430837631225586,0.7971968650817871
1652389146831213600,8.353213623046875,-0.051721349358558655,-0.6978145837783813,0.4282342493534088
1652389146841278000,8.36327783203125,0.10649275034666061,-0.9030653238296509,-0.007923533208668232
1652389146851342000,8.373342041015626,0.24027223885059357,-0.950101912021637,-0.3738318085670471
1652389146861406200,8.38340625,0.29158493876457214,-0.752792477607727,-0.6059606075286865
1652389146871470300,8.39347021484375,0.21705935895442963,-0.4632423520088196,-0.6597167253494263
1652389146881534700,8.40353466796875,-0.026065010577440262,-0.24455256760120392,-0.5289915800094604
1652389146891598800,8.413598876953126,-0.3876972496509552,-0.06556905061006546,-0.34206682443618774
1652389146901629700,8.423629638671875,-0.781094491481781,0.2691850960254669,-0.3090800940990448
1652389146911660500,8.43366064453125,-0.9258695244789124,0.38891470432281494,-0.41170546412467957
1652389146921691400,8.44369140625,-0.951525866985321,0.3724213242530823,-0.5564805269241333
1652389146931722500,8.453722412109375,-0.9441955089569092,0.3192760646343231,-0.7177489399909973
1652389146941753300,8.46375341796875,-0.9435846209526062,0.2349766492843628,-0.8631348609924316
1652389146951784200,8.4737841796875,-0.8098050951957703,0.1488446444272995,-0.9791992902755737
1652389146961815000,8.48381494140625,-0.5819523930549622,0.13540561497211456,-1.0311228036880493
1652389146971846000,8.493845947265624,-0.3681495487689972,0.21603982150554657,-0.9963034987449646
1652389146981876700,8.503876708984375,-0.1855008453130722,0.3620366156101227,-0.8881803750991821
1652389146991907600,8.513907470703124,-0.016291163861751556,0.48543140292167664,-0.7177489399909973
1652389147001938400,8.5239384765625,0.20056599378585815,0.5624004006385803,-0.5204394459724426
1652389147011969500,8.533969482421876,0.4504098892211914,0.6326498985290527,-0.3432885408401489
1652389147021967000,8.543967041015625,0.6764299869537354,0.6747996211051941,-0.25165876746177673
1652389147031964400,8.55396435546875,0.7973813414573669,0.7456599473953247,-0.29686278104782104
1652389147041962000,8.5639619140625,0.7931053042411804,0.9270869493484497,-0.5063895583152771
1652389147051959600,8.57395947265625,0.6984211206436157,1.0614773035049438,-0.6053497195243835
1652389147061957000,8.58395703125,0.5450940132141113,1.1842612028121948,-0.582136869430542
1652389147071954700,8.59395458984375,0.38321468234062195,1.2899409532546997,-0.41231632232666016
1652389147081952300,8.6039521484375,0.24454829096794128,1.317429780960083,-0.156974658370018
1652389147091949800,8.61394970703125,0.12665130198001862,1.2288544178009033,0.08126279711723328
1652389147101947400,8.623947509765625,0.019139019772410393,1.0865228176116943,0.20343583822250366
1652389147111945000,8.633945068359376,-0.07615596055984497,0.9417477250099182,0.16495132446289062
1652389147121942500,8.643942626953125,-0.1299120932817459,0.8336246013641357,-0.03846679627895355
1652389147131940000,8.653940185546874,-0.12197085469961166,0.7804793119430542,-0.36772316694259644
1652389147141937700,8.663937744140625,-0.08348634093999863,0.7835336327552795,-0.7562334537506104
1652389147151935200,8.673935302734375,-0.042558372020721436,0.8269050717353821,-1.133748173713684
1652389147161932800,8.683932861328126,-0.01079337764531374,0.8910459280014038,-1.4355156421661377
1652389147171930400,8.693930419921875,-0.016902031376957893,0.9423585534095764,-1.6676443815231323
1652389147181928000,8.703927978515624,-0.05355394259095192,0.9057066440582275,-1.6425988674163818
1652389147191925500,8.713925537109375,-0.09264932572841644,0.8171312212944031,-1.5069868564605713
1652389147201923000,8.723923095703125,-0.12685777246952057,0.6485323905944824,-1.2999035120010376
1652389147211920600,8.733920654296876,-0.10792095214128494,0.5196398496627808,-1.0671638250350952
1652389147221918200,8.743918212890625,-0.08837325870990753,0.34859758615493774,-0.8869585990905762
1652389147231915800,8.753915771484374,-0.08776240050792694,0.24047444760799408,-0.8032701015472412
1652389147241913300,8.763913330078125,-0.09448191523551941,0.22275933623313904,-0.7904418706893921
1652389147251911000,8.773910888671875,-0.11341874301433563,0.21848329901695251,-0.8258720636367798
1652389147261908500,8.783908447265626,-0.11769479513168335,0.27346116304397583,-0.8686326742172241
1652389147271906000,8.793906005859375,-0.10853181779384613,0.5068116784095764,-0.8784064650535583
1652389147281903600,8.803903564453124,-0.11280787736177444,0.721225380897522,-0.837478518486023
1652389147291901200,8.813901123046875,-0.14151853322982788,0.8098008632659912,-0.762342095375061
1652389147301898500,8.8238984375,-0.1952746957540512,1.0443730354309082,-0.553426206111908
1652389147311896000,8.83389599609375,-0.2062702625989914,0.8947111368179321,-0.39765554666519165
1652389147321893600,8.8438935546875,-0.18183565139770508,0.7529903650283813,-0.28525635600090027
1652389147331891200,8.85389111328125,-0.11219700425863266,0.5556809306144714,-0.23150020837783813
1652389147341888800,8.863888671875,-0.02973019890487194,0.5037573575973511,-0.22661329805850983
1652389147351886300,8.87388623046875,0.042351897805929184,0.34920844435691833,-0.2522696256637573
1652389147361884000,8.8838837890625,0.1071036159992218,0.2893436551094055,-0.26998472213745117
1652389147371881500,8.893881591796875,0.13092735409736633,0.2954522967338562,-0.23760886490345
1652389147381879000,8.903879150390624,0.12359697371721268,0.3498193025588989,-0.13070744276046753
1652389147391876600,8.913876708984375,0.10771447420120239,0.42434486746788025,0.047054339200258255
1652389147401874200,8.923874267578125,0.1126013994216919,0.478711873292923,0.29567646980285645
1652389147411871700,8.933871826171876,0.16391408443450928,0.47015976905822754,0.598054826259613
1652389147421869300,8.943869384765625,0.2842545509338379,0.4102949798107147,0.9499131441116333
1652389147431867000,8.953866943359374,0.4412469267845154,0.2697959542274475,1.331704020500183
1652389147441864400,8.963864501953125,0.6202304363250732,-0.07106684148311615,1.8472741842269897
1652389147451862000,8.973862060546875,0.6416107416152954,-0.28242620825767517,2.103837728500366
1652389147461859600,8.983859619140626,0.6269499659538269,-0.39543628692626953,2.265716791152954
1652389147471857200,8.993857177734375,0.6391672492027283,-0.4070427119731903,2.315807819366455
1652389147481854700,9.003854736328124,0.6605475544929504,-0.4412511885166168,2.276712417602539
1652389147491852300,9.013852294921875,0.6226738691329956,-0.5927457809448242,2.1832499504089355
1652389147501849900,9.023849853515625,0.5041660070419312,-0.8102138042449951,2.0488598346710205
1652389147511847400,9.033847412109376,0.3862690329551697,-0.9348303079605103,1.8772066831588745
1652389147521845000,9.043844970703125,0.32701510190963745,-0.960486650466919,1.6835623979568481
1652389147531842600,9.053842529296874,0.2085072547197342,-0.9158934950828552,1.505800485610962
1652389147541840100,9.063840087890625,0.03685411065816879,-0.8071594834327698,1.2932194471359253
1652389147551837400,9.07383740234375,-0.1409076750278473,-0.7155296802520752,0.9602978229522705
1652389147561868500,9.08386865234375,-0.2881262004375458,-0.7271361351013184,0.23275737464427948
1652389147571899400,9.0938994140625,-0.24903082847595215,-0.7442403435707092,-0.2583782970905304
1652389147581930200,9.10393017578125,-0.1561793088912964,-0.8816850185394287,-0.6035171747207642
1652389147591961000,9.113961181640626,-0.08531893789768219,-1.093044400215149,-0.753179132938385
1652389147601992000,9.123991943359375,-0.08104288578033447,-1.3416664600372314,-0.725079357624054
1652389147612022800,9.134022705078126,-0.11341874301433563,-1.5371434688568115,-0.5283807516098022
1652389147622053600,9.1440537109375,-0.17328353226184845,-1.5420304536819458,-0.16674849390983582
1652389147632084700,9.154084716796875,-0.23803524672985077,-1.2640867233276367,0.3115589916706085
1652389147642115600,9.164115478515624,-0.30950647592544556,-0.7766162157058716,0.7654318809509277
1652389147652146400,9.174146484375,-0.3540996313095093,-0.43941858410835266,1.0305473804473877
1652389147662177300,9.18417724609375,-0.3571539521217346,-0.22256141901016235,1.1044620275497437
1652389147672208100,9.1942080078125,-0.33027592301368713,-0.12726643681526184,1.0403211116790771
1652389147682239000,9.204239013671875,-0.2514742910861969,-0.19262902438640594,0.8033055663108826
1652389147692269800,9.214269775390624,-0.16350969672203064,-0.3270193934440613,0.6206567883491516
1652389147702300700,9.22430078125,-0.045612696558237076,-0.48462262749671936,0.4428950250148773
1652389147712331500,9.23433154296875,0.08144727349281311,-0.6238998770713806,0.26452237367630005
1652389147722362600,9.244362548828125,0.21156157553195953,-0.7204166054725647,0.0702672228217125
1652389147732393500,9.2543935546875,0.34656280279159546,-0.9006218314170837,-0.09772072732448578
1652389147742424300,9.26442431640625,0.48278573155403137,-0.8615264892578125,-0.2797585725784302
1652389147752455200,9.274455078125,0.5915197730064392,-0.7356882095336914,-0.44713565707206726
1652389147762519600,9.28451953125,0.6636018753051758,-0.8089920878410339,-0.53387850522995
1652389147772583700,9.294583740234375,0.702697217464447,-0.8328157663345337,-0.5674760937690735
1652389147782647800,9.304647705078125,0.7051407098770142,-0.8187659382820129,-0.5485392212867737
1652389147792712200,9.314712158203125,0.6477193832397461,-0.7411860227584839,-0.4764571785926819
1652389147802776300,9.3247763671875,0.5347092747688293,-0.6287868022918701,-0.3536732494831085
1652389147812840400,9.33484033203125,0.37282997369766235,-0.4730161726474762,-0.17835493385791779
1652389147822904800,9.34490478515625,0.17552052438259125,-0.2964760959148407,0.050108663737773895
1652389147832969000,9.354968994140625,-0.015069435350596905,-0.16330748796463013,0.32011112570762634
1652389147843033000,9.365033203125,-0.16717487573623657,-0.12665557861328125,0.5937787294387817
1652389147853097500,9.375097412109374,-0.25025254487991333,-0.11504913866519928,0.8179662823677063
1652389147863128300,9.38512841796875,-0.2655242085456848,-0.10955135524272919,0.9535783529281616
1652389147873159200,9.3951591796875,-0.24964168667793274,-0.17613565921783447,0.9474697113037109
1652389147883190000,9.40518994140625,-0.2013833373785019,-0.33434975147247314,0.7745948433876038
1652389147893220900,9.415220947265626,-0.12380345165729523,-0.5603698492050171,0.48137950897216797
1652389147903252000,9.425251953125,-0.01812376081943512,-0.7582902312278748,0.15273402631282806
1652389147913282800,9.43528271484375,0.09488631039857864,-0.8389244675636292,-0.1264313906431198
1652389147923313700,9.445313720703124,0.20972897112369537,-0.5628133416175842,-0.3634470999240875
1652389147933344500,9.455344482421875,0.127873033285141,-0.26837632060050964,-0.3848274052143097
1652389147943375400,9.465375244140626,-0.11280787736177444,-0.052130021154880524,-0.3078583776950836
1652389147953406200,9.47540625,-0.4188513457775116,0.0578257255256176,-0.24616098403930664
1652389147963437000,9.48543701171875,-0.6558670401573181,0.09692110121250153,-0.2944193482398987
1652389147973468200,9.49546826171875,-0.7499403357505798,0.11402533203363419,-0.4349183440208435
1652389147983499000,9.5054990234375,-0.7584924101829529,0.07187562435865402,-0.5790825486183167
1652389147993529900,9.51552978515625,-0.7468860149383545,-0.005093394313007593,-0.7061425447463989
1652389148003560700,9.525560791015625,-0.7578815817832947,-0.023419352248311043,-0.7928853631019592
1652389148013591600,9.535591552734376,-0.7719314694404602,-0.020365025848150253,-0.8441980481147766
1652389148023622400,9.545622314453125,-0.6888538002967834,0.00040439277654513717,-0.856415331363678
1652389148033653200,9.5556533203125,-0.5288071036338806,0.0627126470208168,-0.8154873847961426
1652389148043684400,9.565684326171874,-0.3070630133152008,0.2398635745048523,-0.6676580309867859
1652389148053715200,9.575715087890625,-0.20749199390411377,0.3296607732772827,-0.5442632436752319
1652389148063712500,9.58571240234375,-0.08592980355024338,0.36448007822036743,-0.4306422770023346
1652389148073710000,9.5957099609375,0.06617564707994461,0.3620366156101227,-0.35672760009765625
1652389148083707600,9.605707763671875,0.2543221414089203,0.4200688302516937,-0.3451211452484131
1652389148093705200,9.615705322265624,0.45896199345588684,0.5343006253242493,-0.4141489267349243
1652389148103702800,9.625702880859375,0.5866327881813049,0.6894603967666626,-0.5564805269241333
1652389148113700400,9.635700439453124,0.6055696606636047,0.8024704456329346,-0.7085859775543213
1652389148123698000,9.645697998046876,0.5487592220306396,0.9197565913200378,-0.7806680798530579
1652389148133695500,9.655695556640625,0.44796642661094666,1.0181058645248413,-0.715305507183075
1652389148143693000,9.665693115234374,0.3337346315383911,1.099350929260254,-0.5118873715400696
1652389148153690600,9.675690673828125,0.23782877624034882,1.130505084991455,-0.24555011093616486
1652389148163688200,9.685688232421874,0.16941186785697937,1.1054595708847046,-0.008534397929906845
1652389148173685800,9.695685791015626,0.10954707115888596,1.00588858127594,0.12157990038394928
1652389148183683300,9.705683349609375,0.01974988356232643,0.7456599473953247,0.041556552052497864
1652389148193681000,9.715680908203124,0.025247670710086823,0.627152144908905,-0.17957666516304016
1652389148203678500,9.725678466796875,0.07472775131464005,0.578893780708313,-0.47767889499664307
1652389148213676000,9.735676025390624,0.1223752424120903,0.6155456900596619,-0.7904418706893921
1652389148223673600,9.745673583984376,0.15414024889469147,0.6809082627296448,-1.0671638250350952
1652389148233671200,9.755671142578125,0.17490965127944946,0.7682620286941528,-1.26752769947052
1652389148243668500,9.76566845703125,0.1669684201478958,0.8433984518051147,-1.3793160915374756
1652389148253666000,9.775666015625,0.1431446671485901,0.8708873987197876,-1.3939768075942993
1652389148263663600,9.78566357421875,0.10649275034666061,0.8372898101806641,-1.3316686153411865
1652389148273661200,9.7956611328125,0.08450160175561905,0.7334426641464233,-1.20766282081604
1652389148283658800,9.80565869140625,0.07106255739927292,0.5275810956954956,-1.0329554080963135
1652389148293656300,9.81565625,0.07045169919729233,0.27162855863571167,-0.8784064650535583
1652389148303654000,9.82565380859375,0.08511246740818024,0.11524706333875656,-0.7904418706893921
1652389148313651500,9.8356513671875,0.06739737838506699,0.023006407544016838,-0.7867767214775085
1652389148323649000,9.84564892578125,0.038686707615852356,-0.00020647245401050895,-0.8680217862129211
1652389148333646600,9.855646484375,0.015473827719688416,0.10058629512786865,-0.9187236428260803
1652389148343644200,9.86564404296875,-0.024843279272317886,0.20137906074523926,-0.944990873336792
1652389148353641700,9.875641845703125,-0.05660827085375786,0.4322861433029175,-0.9187236428260803
1652389148363639300,9.885639404296874,-0.09264932572841644,0.6955690383911133,-0.8179308176040649
1652389148373636900,9.895636962890626,-0.1598445028066635,0.8843263983726501,-0.6597167253494263
1652389148383634400,9.905634521484375,-0.20321592688560486,0.8598917722702026,-0.4654616117477417
1652389148393632000,9.915632080078124,-0.22703967988491058,1.016884207725525,-0.2736499011516571
1652389148403629600,9.925629638671875,-0.23253746330738068,0.8281267881393433,-0.16491588950157166
1652389148413627100,9.935627197265624,-0.16289882361888885,0.6204326152801514,-0.13009658455848694
1652389148423624700,9.945624755859376,-0.08226460963487625,0.5147529244422913,-0.15025514364242554
1652389148433622300,9.955622314453125,-0.030341066420078278,0.4328969717025757,-0.1728571504354477
1652389148443619800,9.965619873046874,-0.004073860123753548,0.3418780565261841,-0.13559438288211823
1652389148453617400,9.975617431640625,0.009365174919366837,0.21603982150554657,0.07881932705640793
1652389148463615000,9.985614990234374,0.1022166907787323,0.15128810703754425,0.2962873578071594
1652389148473612500,9.995612548828126,0.26165252923965454,0.08409292995929718,0.5522398948669434
1652389148483610000,10.005610107421875,0.4449121057987213,-0.014867237769067287,0.8588942289352417
1652389148493607400,10.015607421875,0.5896871089935303,-0.1596423089504242,1.2095308303833008
1652389148503605000,10.02560498046875,0.6519954204559326,-0.2506612241268158,1.549172043800354
1652389148513602600,10.0356025390625,0.6202304363250732,-0.23233526945114136,1.8460525274276733
1652389148523600100,10.04560009765625,0.5114964246749878,-0.1999594122171402,2.0714616775512695
1652389148533597700,10.05559765625,0.40764930844306946,-0.23233526945114136,2.2052412033081055
1652389148543595300,10.06559521484375,0.3361780643463135,-0.3019739091396332,2.2388389110565186
1652389148553592800,10.0755927734375,0.31113260984420776,-0.4058209955692291,2.1716434955596924
1652389148563590400,10.08559033203125,0.3361780643463135,-0.5597590208053589,2.0317554473876953
1652389148573588000,10.095587890625,0.37221911549568176,-0.7063667178153992,1.8405547142028809
1652389148583585500,10.10558544921875,0.41864490509033203,-0.874965488910675,1.5320677757263184
1652389148593583000,10.1155830078125,0.389934241771698,-0.9690387845039368,1.3689666986465454
1652389148603580700,10.12558056640625,0.27692416310310364,-0.9855321049690247,1.2584002017974854
1652389148613578200,10.135578125,0.13825774192810059,-0.8945131897926331,1.1521096229553223
1652389148623575800,10.145575927734376,0.007532579358667135,-0.7558467984199524,0.9541891813278198
1652389148633573400,10.155573486328125,-0.07554509490728378,-0.6532214283943176,0.6157699227333069
1652389148643604200,10.165604248046876,-0.11464047431945801,-0.6220673322677612,0.2119879573583603
1652389148653635000,10.175635009765625,-0.12135998904705048,-0.6348954439163208,-0.11360321938991547
1652389148663666000,10.185666015625,-0.135409876704216,-0.7289686799049377,-0.30724748969078064
1652389148673697000,10.195697021484374,-0.1610662192106247,-0.9421607255935669,-0.3756644129753113
1652389148683728000,10.205727783203125,-0.16412055492401123,-1.1132030487060547,-0.3096909821033478
1652389148693758700,10.2157587890625,-0.15312498807907104,-1.1382484436035156,0.07881932705640793
1652389148703789600,10.22578955078125,-0.18000304698944092,-1.0429534912109375,0.46183183789253235
1652389148713820400,10.2358203125,-0.20810285210609436,-0.8248745799064636,0.7745948433876038
1652389148723851300,10.245851318359374,-0.21787668764591217,-0.6110717058181763,0.9193699359893799
1652389148733882000,10.255882080078125,-0.20688112080097198,-0.37955379486083984,0.8869940638542175
1652389148743913200,10.265913330078124,-0.15923362970352173,-0.32885196805000305,0.7471058964729309
1652389148753944000,10.275944091796875,-0.09570364654064178,-0.3569517731666565,0.549796462059021
1652389148763975000,10.285974853515626,-0.027286740019917488,-0.3673364818096161,0.3439348340034485
1652389148774005800,10.296005859375,0.04357362911105156,-0.4662966728210449,0.1808338314294815
1652389148784036600,10.30603662109375,0.12542957067489624,-0.48645520210266113,0.09225837141275406
1652389148794067500,10.3160673828125,0.18895956873893738,-0.3471779227256775,0.038502223789691925
1652389148804098600,10.3260986328125,0.25187867879867554,-0.2720414996147156,0.007348097860813141
1652389148814129400,10.33612939453125,0.33068031072616577,-0.34901052713394165,-0.020751703530550003
1652389148824160300,10.34616015625,0.45774027705192566,-0.40398839116096497,-0.16552676260471344
1652389149141568300,10.663568359375,0.2744806706905365,0.8085790872573853,-0.3048040568828583
1652389149151566300,10.67356640625,0.3447301983833313,0.9729018807411194,-0.5131090879440308
1652389149161564400,10.683564453125,0.4363599717617035,1.1360028982162476,-0.7641746997833252
1652389149171562000,10.69356201171875,0.46384891867637634,1.294827938079834,-0.9639276266098022
1652389149181559800,10.703559814453126,0.389934241771698,1.4286073446273804,-1.026235818862915
1652389149191557400,10.713557373046875,0.2830328047275543,1.5562782287597656,-0.9260540008544922
1652389149201555000,10.723554931640624,0.21095070242881775,1.650962233543396,-0.6982012391090393
1652389149211552500,10.733552490234375,0.16880100965499878,1.646686315536499,-0.4269770681858063
1652389149221550300,10.74355029296875,0.12115351855754852,1.4890830516815186,-0.097109854221344
1652389149231548000,10.7535478515625,0.08816679567098618,1.3436970710754395,0.007348097860813141
1652389149241545500,10.76354541015625,0.04113017022609711,1.1549396514892578,-0.010366993956267834
1652389149251543000,10.77354296875,0.020971614867448807,1.0095537900924683,-0.13376177847385406
1652389149261540600,10.78354052734375,0.0289128627628088,0.9350281953811646,-0.3341255784034729
1652389149271538200,10.7935380859375,0.05701266601681709,0.9435803294181824,-0.5705304145812988
1652389149281535700,10.80353564453125,0.08816679567098618,1.00894296169281,-0.8008266091346741
1652389149291533300,10.813533203125,0.10404928773641586,1.0950748920440674,-1.00241219997406
1652389149301531000,10.82353076171875,0.09488631039857864,1.177541732788086,-1.155739426612854
1652389149311528400,10.833528564453125,0.053347472101449966,1.2380173206329346,-1.2644734382629395
1652389149321526300,10.8435263671875,-0.007128186523914337,1.2563433647155762,-1.332890272140503
1652389149331523800,10.85352392578125,-0.06699298322200775,1.1732655763626099,-1.3518270254135132
1652389149341521400,10.863521484375,-0.12197085469961166,0.931363046169281,-1.3090665340423584
1652389149351519000,10.87351904296875,-0.13418816030025482,0.691292941570282,-1.2162150144577026
1652389149361516500,10.8835166015625,-0.0950927808880806,0.39380159974098206,-1.0170729160308838
1652389149371514000,10.89351416015625,-0.09326018393039703,0.27834808826446533,-0.9205561876296997
1652389149381511700,10.90351171875,-0.10120142996311188,0.2856784760951996,-0.8716869950294495
1652389149391509200,10.91350927734375,-0.11280787736177444,0.3156108558177948,-0.866189181804657
1652389149401506800,10.9235068359375,-0.11402960121631622,0.5037573575973511,-0.8643566370010376
1652389149411504400,10.93350439453125,-0.135409876704216,0.5862241983413696,-0.8515284657478333
1652389149421502000,10.943501953125,-0.1409076750278473,0.6650257706642151,-0.8020483255386353
1652389149431499500,10.95349951171875,-0.13235555589199066,0.7267231345176697,-0.704920768737793
1652389149441497000,10.9634970703125,-0.13663162291049957,0.9955039024353027,-0.5870237946510315
1652389149451494700,10.97349462890625,-0.14945979416370392,0.969847559928894,-0.44896823167800903
1652389149461492200,10.9834921875,-0.12746864557266235,0.6088261604309082,-0.35794931650161743
1652389149471489800,10.99348974609375,-0.05355394259095192,0.44511428475379944,-0.30052798986434937
1652389149481487400,11.0034873046875,0.0026456573978066444,0.3669235408306122,-0.26693040132522583
1652389149491485000,11.01348486328125,0.008754309266805649,0.27223944664001465,-0.2382197231054306
1652389149501482500,11.023482421875,-0.021788951009511948,0.27162855863571167,-0.1930156946182251
1652389149511480000,11.03347998046875,-0.07554509490728378,0.3314933478832245,-0.09405553340911865
1652389149521477600,11.0434775390625,-0.1402968168258667,0.4365621507167816,0.06721288710832596
1652389149531475200,11.05347509765625,-0.18427911400794983,0.5391875505447388,0.2962873578071594
1652389149541472800,11.06347265625,-0.16412055492401123,0.6039392948150635,0.5925570130348206
1652389149551470300,11.07347021484375,-0.03522798791527748,0.6253195405006409,0.9401393532752991
1652389149561468000,11.083468017578125,0.2078963816165924,0.5807263851165771,1.3213192224502563
1652389149571465200,11.09346533203125,0.4711792767047882,0.40846237540245056,1.6908926963806152
1652389149581462800,11.103462890625,0.6458867788314819,0.15250983834266663,2.0067100524902344
1652389149591460400,11.11346044921875,0.7039189338684082,-0.049075692892074585,2.243114948272705
1652389149601458000,11.1234580078125,0.7265210151672363,-0.12665557861328125,2.379948616027832
1652389149611455500,11.13345556640625,0.7607294321060181,-0.17674651741981506,2.4056050777435303
1652389149621453000,11.143453125,0.7521772980690002,-0.44491636753082275,2.3145861625671387
1652389149631450600,11.15345068359375,0.6275607943534851,-0.6794886589050293,2.223567247390747
1652389149641448200,11.1634482421875,0.4760662317276001,-0.8523634672164917,2.1160550117492676
1652389149651445800,11.17344580078125,0.3758842945098877,-0.914671778678894,1.9963253736495972
1652389149661443300,11.183443359375,0.2585982084274292,-0.9158934950828552,1.8680435419082642
1652389149671441000,11.19344091796875,0.03746497631072998,-0.8743546009063721,1.6267517805099487
1652389149681438500,11.2034384765625,-0.19405294954776764,-0.8205984830856323,1.1606615781784058
1652389149691436000,11.21343603515625,-0.35532137751579285,-0.8474765419960022,0.500927209854126
1652389149701433600,11.22343359375,-0.40113624930381775,-0.9207804203033447,-0.19912436604499817
1652389149711431200,11.23343115234375,-0.3437149226665497,-1.0502837896347046,-0.7580660581588745
1652389149721428700,11.2434287109375,-0.2606372535228729,-1.2659193277359009,-1.092820167541504
1652389149731426300,11.25342626953125,-0.20993545651435852,-1.4894959926605225,-1.199110746383667
1652389149741423900,11.263423828125,-0.20871371030807495,-1.6342710256576538,-1.063498616218567
1652389149751421400,11.27342138671875,-0.24964168667793274,-1.5866235494613647,-0.6572732925415039
1652389149761419000,11.2834189453125,-0.3693712651729584,-0.8517526388168335,0.29689821600914
1652389149771416600,11.29341650390625,-0.4329012632369995,-0.23722217977046967,0.8191879987716675
1652389149781414100,11.3034140625,-0.45244893431663513,0.09203417599201202,1.08980131149292
1652389149791411700,11.31341162109375,-0.4274034798145294,0.194048672914505,1.1411139965057373
1652389149801409300,11.3234091796875,-0.3687604069709778,0.14762291312217712,1.0452080965042114
1652389149811406800,11.33340673828125,-0.2972891926765442,0.0028478535823524,0.8839396834373474
1652389149821404200,11.343404052734375,-0.19955073297023773,-0.19812682271003723,0.7342777252197266
1652389151080309500,12.6023095703125,0.39726462960243225,-0.38382983207702637,2.309699296951294
1652389151090306600,12.612306640625,0.29708269238471985,-0.46568578481674194,2.245558261871338
1652389151100304100,12.62230419921875,0.2231680154800415,-0.7002580761909485,2.0268685817718506
1652389151110301400,12.632301513671875,0.21400503814220428,-0.8218202590942383,1.838111162185669
1652389151120298800,12.642298828125,0.23172011971473694,-0.8511418104171753,1.612091064453125
1652389151130296300,12.65229638671875,0.2647068500518799,-0.8810741305351257,1.383016586303711
1652389151140294000,12.6622939453125,0.2176702320575714,-0.9091739654541016,1.1967027187347412
1652389151150291500,12.67229150390625,0.06067785620689392,-0.8694677352905273,1.0366560220718384
1652389151160288800,12.682288818359375,-0.09692537784576416,-0.7784488201141357,0.8149119019508362
1652389151170286600,12.69228662109375,-0.17267267405986786,-0.7729510068893433,0.5155879259109497
1652389151180284000,12.702283935546875,-0.1659531593322754,-0.7576794028282166,0.18938593566417694
1652389151190281500,12.712281494140624,-0.15740102529525757,-0.7717292308807373,-0.07450783997774124
1652389151200279000,12.722279052734375,-0.16839660704135895,-0.9220021367073059,-0.21134166419506073
1652389151210276600,12.732276611328125,-0.2062702625989914,-1.1009856462478638,-0.2437175214290619
1652389151220274200,12.742274169921876,-0.23314833641052246,-1.245149850845337,-0.18690703809261322
1652389151230271700,12.752271728515625,-0.2215418815612793,-1.245149850845337,0.14173844456672668
1652389151240269300,12.762269287109374,-0.22398534417152405,-1.1333614587783813,0.5210857391357422
1652389151250267000,12.772266845703125,-0.23437005281448364,-0.9519345164299011,0.9034874439239502
1652389151260264400,12.782264404296875,-0.2368135154247284,-0.7100318670272827,1.1301183700561523
1652389151270261800,12.79226171875,-0.21787668764591217,-0.5493743419647217,1.1527204513549805
1652389151280259300,12.80225927734375,-0.17145094275474548,-0.4968399107456207,1.0055018663406372
1652389151290257000,12.8122568359375,-0.09631451219320297,-0.5567046999931335,0.7605448961257935
1652389151300254500,12.82225439453125,-0.009571647271513939,-0.6691039204597473,0.4844338595867157
1652389151310295600,12.832295654296875,0.10832534730434418,-0.8914588689804077,0.24497468769550323
1652389151320334800,12.8423349609375,0.21583762764930725,-0.837091863155365,0.06904548406600952
1652389151330372400,12.852372314453126,0.2989153265953064,-0.6581083536148071,-0.06473400443792343
1652389151340408300,12.862408203125,0.42292097210884094,-0.6831538081169128,-0.07389698177576065
1652389151350442800,12.87244287109375,0.5114964246749878,-0.7265252470970154,-0.07817303389310837
1652389151360476200,12.88247607421875,0.5896871089935303,-0.7992181777954102,-0.10566197335720062
1652389151370508000,12.892508056640626,0.6318368315696716,-0.9030653238296509,-0.19057223200798035
1652389151380539000,12.902538818359375,0.644054114818573,-1.0117993354797363,-0.31152355670928955
1652389151390570000,12.912570068359376,0.6287825107574463,-1.062501072883606,-0.4104837477207184
1652389151400600800,12.922600830078125,0.5823567509651184,-1.0215731859207153,-0.4569094777107239
1652389151410631700,12.932631591796875,0.49927911162376404,-0.8810741305351257,-0.4361400902271271
1652389151420662500,12.94266259765625,0.37832778692245483,-0.69353848695755,-0.33656904101371765
1652389151430693400,12.952693359375,0.22561146318912506,-0.523717999458313,-0.14842253923416138
1652389151440724200,12.96272412109375,0.05395834147930145,-0.371612548828125,0.11608211696147919
1652389151450755000,12.972755126953125,-0.11952739208936691,-0.26348936557769775,0.41723868250846863
1652389151460786200,12.9827861328125,-0.26918935775756836,-0.18102258443832397,0.6872410774230957
1652389151470817000,12.992817138671874,-0.3327193558216095,-0.12237952649593353,0.9004331231117249
1652389151480848000,13.002847900390625,-0.31561514735221863,-0.209733247756958,0.871722400188446
1652389151490878700,13.012878662109374,-0.25391775369644165,-0.3728342652320862,0.7135083079338074
1652389151500909600,13.02290966796875,-0.1604553610086441,-0.5536503791809082,0.48076868057250977
1652389151510940400,13.0329404296875,-0.054775677621364594,-0.5866370797157288,0.25841373205184937
1652389151520971300,13.04297119140625,-0.0010195340728387237,-0.34962138533592224,0.10325394570827484
1652389151531002400,13.05300244140625,-0.12135998904705048,-0.057627804577350616,0.04766520485281944
1652389151541033200,13.063033203125,-0.4341229796409607,0.17083579301834106,-0.006701802834868431
1652389151551064000,13.07306396484375,-0.7255057096481323,0.25757867097854614,-0.18507444858551025
1652389151561095000,13.083094970703126,-0.8171355128288269,0.23558750748634338,-0.5076112747192383
1652389151571125800,13.093125732421875,-0.7554380893707275,0.15739676356315613,-0.8203743100166321
1652389151581156600,13.103156494140626,-0.6882429122924805,0.008956505917012691,-1.0066882371902466
1652389151591187500,13.1131875,-0.6277672648429871,-0.22439400851726532,-1.0408966541290283
1652389151601218300,13.12321826171875,-0.5080376863479614,-0.3868841826915741,-0.8790174126625061
1652389151611216000,13.1332158203125,-0.43045780062675476,-0.3416801393032074,-0.6743775010108948
1652389151621213400,13.14321337890625,-0.3363845646381378,-0.21400931477546692,-0.44347044825553894
1652389151631211000,13.1532109375,-0.24047870934009552,-0.003260798752307892,-0.24249579012393951
1652389151641208600,13.16320849609375,-0.18244652450084686,0.27834808826446533,-0.0916120707988739
1652389151651206100,13.1732060546875,-0.11158614605665207,0.5391875505447388,0.00673723267391324
1652389151661203700,13.18320361328125,0.008754309266805649,0.6619714498519897,0.01467848103493452
1652389151671201300,13.193201171875,0.1571945697069168,0.6827408671379089,-0.09344466030597687
1652389151681198800,13.20319873046875,0.2787567377090454,0.7126733064651489,-0.3139670193195343
1652389151691196400,13.213196533203124,0.3514496982097626,0.7871988415718079,-0.6132910251617432
1652389151701194000,13.223194091796875,0.4455229640007019,0.8672221899032593,-0.924832284450531
1652389151711191600,13.233191650390625,0.4216992259025574,0.9619063138961792,-1.1270287036895752
1652389151721189000,13.243189208984376,0.29158493876457214,1.077359914779663,-1.153295874595642
1652389151731186700,13.253186767578125,0.19506821036338806,1.2593977451324463,-0.9877514243125916
1652389151741184300,13.263184326171874,0.13947947323322296,1.4060053825378418,-0.5375437140464783
1652389151751181800,13.273181884765625,0.12115351855754852,1.331479787826538,-0.26998472213745117
1652389151761179400,13.283179443359375,0.1071036159992218,1.188537359237671,-0.10932716727256775
1652389151771177000,13.293177001953126,0.08755592256784439,1.0284905433654785,-0.08000563085079193
1652389151781174500,13.303174560546875,0.061899587512016296,0.8696656227111816,-0.1679702252149582
1652389151791172000,13.313172119140624,0.07411689311265945,0.7908639907836914,-0.33779075741767883
1652389151801169700,13.323169677734375,0.11504486203193665,0.7639859914779663,-0.5375437140464783
1652389151811167200,13.333167236328125,0.17674225568771362,0.8073573708534241,-0.7214141488075256
1652389151821164800,13.343164794921876,0.23721791803836823,0.8782177567481995,-0.866189181804657
1652389151831162400,13.353162353515625,0.2640959918498993,0.9197565913200378,-0.9675928354263306
1652389151841160000,13.363159912109374,0.24638089537620544,0.9478563666343689,-1.026235818862915
1652389151851157500,13.373157470703125,0.18895956873893738,0.9264760613441467,-1.0616661310195923
1652389151861155000,13.383155029296875,0.11321226507425308,0.9283087253570557,-1.081824541091919
1652389151871152600,13.393152587890626,-0.012625973671674728,0.730999231338501,-1.070829153060913
1652389151881150200,13.403150146484375,-0.06271692365407944,0.5538483262062073,-1.038453221321106
1652389151891147800,13.413147705078124,-0.045612696558237076,0.4371730387210846,-0.9932491183280945
1652389151901145300,13.423145263671875,-0.03278452530503273,0.34371066093444824,-0.9694254398345947
1652389151911143000,13.433142822265625,-0.0596625991165638,0.184274822473526,-0.9706471562385559
1652389151921140500,13.443140380859376,-0.07737769186496735,0.103640615940094,-0.9999687075614929
1652389151931138000,13.453137939453125,-0.12197085469961166,0.15617503225803375,-1.0494487285614014
1652389151941135400,13.46313525390625,-0.15679018199443817,0.32355210185050964,-1.0506705045700073
1652389151951133000,13.4731328125,-0.21787668764591217,0.5153637528419495,-1.0182946920394897
1652389151961130500,13.483130615234375,-0.2612481415271759,0.7242797017097473,-0.9205561876296997
1652389151971128000,13.493128173828126,-0.29912176728248596,0.6894603967666626,-0.7806680798530579
1652389151981125600,13.503125732421875,-0.2960674464702606,0.9283087253570557,-0.5864129066467285
1652389151991123200,13.513123291015624,-0.30400869250297546,0.9997798800468445,-0.3548949956893921
1652389152001120800,13.523120849609375,-0.20932458341121674,0.7059537172317505,-0.07878390699625015
1652389152011118300,13.533118408203125,-0.11708392947912216,0.6729670166969299,0.007958963513374329
1652389152021116000,13.543115966796876,-0.030341066420078278,0.6179891228675842,0.041556552052497864
1652389152031113500,13.553113525390625,0.04051930084824562,0.5312463045120239,0.06782376021146774
1652389152041111000,13.563111083984374,0.07228429615497589,0.48420965671539307,0.13868412375450134
1652389152051108600,13.573108642578125,0.07228429615497589,0.446336030960083,0.287735253572464
1652389152061106200,13.583106201171875,0.10160582512617111,0.33271509408950806,0.4997054636478424
1652389152071103700,13.593103759765626,0.20178772509098053,0.27712634205818176,0.740386426448822
1652389152081101000,13.60310107421875,0.36244529485702515,0.23558750748634338,0.9853433966636658
1652389152091098600,13.6130986328125,0.5579221844673157,0.1384599506855011,1.253513216972351
1652389152101096200,13.62309619140625,0.7185797095298767,0.002236988628283143,1.555891513824463
1652389152111093800,13.63309375,0.7949378490447998,-0.09122539311647415,1.8539937734603882
1652389152121091300,13.64309130859375,0.7717249989509583,-0.1388728767633438,2.1068918704986572
1652389152131089000,13.6530888671875,0.6886473298072815,-0.1743030697107315,2.2748799324035645
1652389152141086500,13.66308642578125,0.6098456978797913,-0.2005702704191208,2.3475728034973145
1652389152151084000,13.673083984375,0.6269499659538269,-0.2567698657512665,2.3090884685516357
1652389152161081600,13.68308154296875,0.6153435111045837,-0.4510250389575958,2.225399971008301
1652389152171079200,13.6930791015625,0.53287672996521,-0.6684930324554443,2.106281042098999
1652389152181076700,13.70307666015625,0.4809531569480896,-0.8291506171226501,1.9279084205627441
1652389152191074300,13.71307421875,0.4412469267845154,-0.9299433827400208,1.7214360237121582
1652389152201071900,13.72307177734375,0.29708269238471985,-0.9537670612335205,1.4984701871871948
1652389152211069400,13.7330693359375,0.09977322816848755,-0.8945131897926331,1.1789876222610474
1652389152221067000,13.74306689453125,-0.09203845262527466,-0.8474765419960022,0.7025127410888672
1652389152231064600,13.753064697265625,-0.19893987476825714,-0.8419787883758545,0.12157990038394928
1652389152241062100,13.763062255859374,-0.1861117035150528,-0.8144898414611816,-0.4196467101573944
1652389152251059700,13.773059814453125,-0.1360207498073578,-0.8829067349433899,-0.7843332290649414
1652389152261057300,13.783057373046875,-0.104866623878479,-1.1077052354812622,-0.9217779636383057
1652389152271054800,13.793054931640626,-0.13785335421562195,-1.4021421670913696,-0.762952983379364
1652389152281052400,13.803052490234375,-0.17755958437919617,-1.4607852697372437,-0.4055967926979065
1652389152291050000,13.813050048828124,-0.24475476145744324,-1.2445389032363892,0.12219076603651047
1652389152301047600,13.823047607421875,-0.3266107141971588,-0.72347092628479,0.662806510925293
1652389152311045000,13.833045166015625,-0.36631694436073303,-0.3013630509376526,0.9883977174758911
1652389152321042700,13.843042724609376,-0.35959744453430176,-0.08817106485366821,1.0714753866195679
1652389152331073500,13.853073486328125,-0.318058580160141,-0.031360600143671036,0.985954225063324
1652389152341104400,13.8631044921875,-0.256972074508667,-0.10588616132736206,0.8039163947105408
1652389152351135200,13.87313525390625,-0.13968594372272491,-0.37894293665885925,0.4905425012111664
1652389152361166000,13.883166015625,-0.08715153485536575,-0.4821791350841522,0.3989127278327942
1652389152371197000,13.893197021484376,0.09610804170370102,-0.7088102102279663,0.16189700365066528
1652389152381228000,13.90322802734375,0.2133941650390625,-0.7662314772605896,0.01467848103493452
1652389152391259000,13.9132587890625,0.33129116892814636,-0.9562105536460876,-0.07450783997774124
1652389152401289700,13.923289794921875,0.4308621883392334,-0.7839465737342834,-0.16430503129959106
1652389152411320600,13.933320556640625,0.522491991519928,-0.6275650858879089,-0.24188491702079773
1652389152421351400,13.943351318359374,0.5860219597816467,-0.6251216530799866,-0.2931976020336151
1652389152431382300,13.95338232421875,0.6122891902923584,-0.6513887643814087,-0.35245153307914734
1652389152441413000,13.9634130859375,0.6141217947006226,-0.7088102102279663,-0.3952120840549469
1652389152451444200,13.9734443359375,0.5823567509651184,-0.7564576268196106,-0.3897143304347992
1652389152461475000,13.98347509765625,0.5078312158584595,-0.7356882095336914,-0.3438994288444519
1652389152471506000,13.993505859375,0.38871249556541443,-0.6428367495536804,-0.26204347610473633
1652389152481536800,14.003536865234375,0.22438974678516388,-0.49134212732315063,-0.13376177847385406
1652389152491567600,14.013567626953124,0.015473827719688416,-0.32885196805000305,0.06721288710832596
1652389152501598500,14.023598388671875,-0.17206180095672607,-0.21828536689281464,0.32560887932777405
1652389152511629300,14.03362939453125,-0.347380131483078,-0.13093164563179016,0.6768563985824585
1652389152521660400,14.043660400390625,-0.38158857822418213,-0.0838950127363205,0.8081924319267273
1652389152531691300,14.053691162109375,-0.3773125410079956,-0.11199481040239334,0.8185771703720093
1652389152541722000,14.06372216796875,-0.3284432888031006,-0.23294614255428314,0.6738020777702332
1652389152551753000,14.0737529296875,-0.23070485889911652,-0.43025562167167664,0.39585840702056885
1652389152561783800,14.08378369140625,-0.09326018393039703,-0.6355063319206238,0.06782376021146774
1652389152571814700,14.093814697265625,0.06556478142738342,-0.7723401784896851,-0.23088935017585754
1652389152581845500,14.103845458984376,0.17613139748573303,-0.7112535834312439,-0.4440813362598419
1652389152591876600,14.113876708984375,0.18407262861728668,-0.481568306684494,-0.5351002216339111
1652389152601907500,14.123907470703125,0.0050891186110675335,-0.22805920243263245,-0.5002809166908264
1652389152611938300,14.133938232421874,-0.32538896799087524,-0.03563665598630905,-0.39276865124702454
1652389152621969200,14.14396923828125,-0.6234912276268005,0.13235129415988922,-0.34145596623420715
1652389152631966700,14.153966796875,-0.7890356779098511,0.255135178565979,-0.4147597849369049
1652389152641964300,14.16396435546875,-0.7945334911346436,0.2655198872089386,-0.5961867570877075
1652389152651961900,14.1739619140625,-0.732836127281189,0.09692110121250153,-0.6957578063011169
1652389152661959400,14.18395947265625,-0.7212296724319458,-0.054573480039834976,-0.7495139241218567
1652389152671957000,14.19395703125,-0.7255057096481323,-0.11688173562288284,-0.7476813197135925
1652389152681954300,14.203954345703124,-0.6522018909454346,-0.13642942905426025,-0.7165272235870361
1652389152691951900,14.213951904296875,-0.5153680443763733,-0.08939279615879059,-0.665825366973877
1652389152701949400,14.223949462890625,-0.3479909896850586,0.07554081827402115,-0.6120692491531372
1652389152711947000,14.233947021484376,-0.21543322503566742,0.3052261471748352,-0.5357111096382141
1652389152721944600,14.243944580078125,-0.1103644073009491,0.49398350715637207,-0.4391944110393524
1652389152731942100,14.253942138671874,0.013030366972088814,0.559956967830658,-0.3640579879283905
1652389152741939700,14.263939697265625,0.1633032262325287,0.548961341381073,-0.3542841076850891
1652389152751937300,14.273937255859375,0.3428976237773895,0.5495722889900208,-0.4312531352043152
1652389152761934800,14.283934814453126,0.5108855366706848,0.6253195405006409,-0.6096258163452148
1652389152771932400,14.293932373046875,0.6122891902923584,0.7444382309913635,-0.8264829516410828
1652389152781930000,14.303929931640624,0.6269499659538269,0.960684597492218,-0.9859187602996826
1652389152791927600,14.313927490234375,0.4974465072154999,1.1353919506072998,-0.8808499574661255
1652389152801925000,14.323925048828125,0.350838840007782,1.31193208694458,-0.6255083084106445
1652389152811922700,14.333922607421876,0.24515916407108307,1.4102814197540283,-0.3139670193195343
1652389152821920300,14.343920166015625,0.1736879199743271,1.4115030765533447,-0.0561818890273571
1652389152831917800,14.353917724609374,0.09610804170370102,1.3320906162261963,0.0849279835820198
1652389152841915400,14.363915283203125,0.0050891186110675335,1.1549396514892578,0.08431711792945862
1652389152851913000,14.373912841796875,-0.05538653954863548,0.9967255592346191,-0.055571023374795914
1652389152861910500,14.38391064453125,-0.06577124446630478,0.8788285851478577,-0.30602577328681946
1652389152871908000,14.393908203125,-0.027286740019917488,0.8372898101806641,-0.6169561743736267
1652389152881872400,14.403872314453125,0.0289128627628088,0.8171312212944031,-0.9254431128501892
1652389152891836400,14.41383642578125,0.0869450643658638,0.8623352646827698,-1.1868934631347656
1652389152901800700,14.42380078125,0.13398168981075287,0.9044849872589111,-1.370763897895813
1652389152911765000,14.433764892578125,0.1529185026884079,0.9148696660995483,-1.4660588502883911
1652389152921729300,14.443729248046875,0.14009033143520355,0.9063175916671753,-1.465448021888733
1652389152931693600,14.453693603515624,0.10282756388187408,0.8501179218292236,-1.373818278312683
1652389152941657600,14.46365771484375,0.04051930084824562,0.6509758830070496,-1.1178656816482544
1652389152951622000,14.473621826171875,0.004478252958506346,0.43411871790885925,-0.933995246887207
1652389152961586200,14.483586181640625,-0.021788951009511948,0.3107239305973053,-0.8148764967918396
1652389152971550500,14.493550537109375,-0.04805615544319153,0.18671828508377075,-0.7873875498771667
1652389152981514500,14.503514404296874,-0.07432336360216141,0.1183013841509819,-0.8441980481147766
1652389152991478800,14.513478759765626,-0.0902058556675911,0.12441003322601318,-0.9431582093238831
1652389153001443000,14.523443115234375,-0.10059057176113129,0.16655974090099335,-1.0311228036880493
