time,seconds_elapsed,z,y,x
1652389088418633500,0.294633544921875,0.013030366972088814,0.7639859914779663,-0.5430415272712708
1652389088429737700,0.30573779296875,0.2934175133705139,0.32294124364852905,-0.21928291022777557
1652389088439735300,0.3157353515625,0.16085976362228394,-0.02158675529062748,-0.04457544535398483
1652389088449732600,0.325732666015625,0.022193346172571182,-0.2695980668067932,0.05804990977048874
1652389088459730200,0.335730224609375,-0.07126903533935547,-0.38382983207702637,0.1808338314294815
1652389088469727700,0.345727783203125,-0.11952739208936691,-0.36550387740135193,0.22909218072891235
1652389088479725600,0.3557255859375,-0.1250251829624176,-0.32396504282951355,0.18266642093658447
1652389088489723100,0.36572314453125,-0.05844086781144142,-0.19629421830177307,0.05927164480090141
1652389088499720700,0.375720703125,-0.048667021095752716,-0.0936688557267189,-0.08000563085079193
1652389088509607200,0.385607177734375,-0.03461712226271629,0.03400197997689247,-0.19545917212963104
1652389088519504600,0.395504638671875,-0.03583885356783867,0.2349766492843628,-0.33229297399520874
1652389088529411300,0.405411376953125,-0.0950927808880806,0.2795698344707489,-0.38238394260406494
1652389088539325700,0.41532568359375,-0.08837325870990753,0.1482337862253189,-0.378718763589859
1652389088549323300,0.4253232421875,-0.027286740019917488,0.026060733944177628,-0.34145596623420715
1652389088559320800,0.43532080078125,0.07472775131464005,-0.12299038469791412,-0.297473669052124
1652389088569318400,0.445318359375,0.10404928773641586,-0.20423546433448792,-0.2541022300720215
1652389088579316000,0.45531591796875,0.2488243579864502,-0.2353895902633667,-0.26509779691696167
1652389088589313300,0.465313232421875,0.3294585645198822,-0.12237952649593353,-0.33901247382164
1652389088599310800,0.475310791015625,0.3245716691017151,-0.07412116974592209,-0.42270103096961975
1652389088609308400,0.485308349609375,0.31235432624816895,-0.03930184990167618,-0.5143308043479919
1652389088619306000,0.495305908203125,0.31601953506469727,0.01934121549129486,-0.5943542122840881
1652389088629303600,0.505303466796875,0.32273903489112854,0.08531466126441956,-0.6114583611488342
1652389088639301000,0.515301025390625,0.30319133400917053,0.21237462759017944,-0.5491501688957214
1652389088649298700,0.525298583984375,0.25676560401916504,0.25818949937820435,-0.4251444935798645
1652389088659296300,0.535296142578125,0.18651609122753143,0.2398635745048523,-0.28647810220718384
1652389088669293800,0.5452939453125,0.1327599436044693,0.12379917502403259,-0.16491588950157166
1652389088679291400,0.55529150390625,0.10954707115888596,-0.06190386041998863,-0.0665665939450264
1652389088689289000,0.5652890625,0.07594948261976242,-0.16575096547603607,0.04949779808521271
1652389088699286500,0.57528662109375,0.02830199897289276,-0.2653219997882843,0.29689821600914
1652389088709284000,0.5852841796875,0.06006699055433273,-0.24638515710830688,0.44594934582710266
1652389088719281400,0.595281494140625,0.12054264545440674,-0.32763025164604187,0.5601811408996582
1652389088729279000,0.605279052734375,0.1785748451948166,-0.40032321214675903,0.5754527449607849
1652389088739276500,0.615276611328125,0.20178772509098053,-0.3923819661140442,0.46794047951698303
1652389088749274000,0.625274169921875,0.19690079987049103,-0.37405601143836975,0.3268306255340576
1652389088759271700,0.635271728515625,0.18529437482357025,-0.26410025358200073,0.1961054503917694
1652389088769269200,0.645269287109375,0.13092735409736633,-0.15536624193191528,0.09958875179290771
1652389088779266800,0.655266845703125,0.01974988356232643,-0.16575096547603607,0.1050865426659584
1652389088789264400,0.665264404296875,-0.025454143062233925,-0.08694934099912643,0.1606752723455429
1652389088799262000,0.675261962890625,0.02341507561504841,0.04377582669258118,0.055606454610824585
1652389088809292800,0.685292724609375,0.06556478142738342,0.08470379561185837,-0.07817303389310837
1652389088819323600,0.69532373046875,0.04601708799600601,0.13662734627723694,-0.16613763570785522
1652389088829354500,0.7053544921875,0.01730642281472683,0.21726155281066895,-0.2479935735464096
1652389088839385600,0.715385498046875,0.018528154119849205,0.20565512776374817,-0.26693040132522583
1652389088849383000,0.7253828125,0.0008130616624839604,0.05171707272529602,-0.20889818668365479
1652389088859380500,0.73538037109375,-0.01079337764531374,-0.09000366181135178,-0.14842253923416138
1652389088869378000,0.7453779296875,-0.013236839324235916,-0.2408873736858368,-0.11054889857769012
1652389088879375600,0.755375732421875,-0.015069435350596905,-0.33434975147247314,-0.09344466030597687
1652389088889373200,0.765373291015625,0.00020219638827256858,-0.3172455430030823,-0.11054889857769012
1652389088899370800,0.775370849609375,0.022193346172571182,-0.28914570808410645,-0.1673593670129776
1652389088909368300,0.785368408203125,0.03807583823800087,-0.3068608343601227,-0.21500685811042786
1652389088919366000,0.795365966796875,0.06739737838506699,-0.3374040722846985,-0.24188491702079773
1652389088929363500,0.805363525390625,0.10527101904153824,-0.36977994441986084,-0.28647810220718384
1652389088939361000,0.815361083984375,0.1370360106229782,-0.40459927916526794,-0.37322095036506653
1652389088949358600,0.825358642578125,0.1626923531293869,-0.46140971779823303,-0.5015026330947876
1652389088959356200,0.835356201171875,0.13886860013008118,-0.5212745070457458,-0.6346712708473206
1652389088969353700,0.845353759765625,0.14925330877304077,-0.6880407333374023,-0.7000339031219482
1652389088979351300,0.855351318359375,0.18407262861728668,-0.798607349395752,-0.6749883890151978
1652389088989348900,0.865348876953125,0.24088309705257416,-1.0301252603530884,-0.5796934366226196
1652389088999346400,0.875346435546875,0.13886860013008118,-1.1174789667129517,-0.420257568359375
1652389089009344000,0.885343994140625,0.06128871813416481,-1.1852850914001465,-0.2180611789226532
1652389089019341600,0.895341552734375,0.10832534730434418,-1.4015313386917114,-0.10749457031488419
1652389089029339100,0.905339111328125,0.18651609122753143,-1.6342710256576538,-0.022584298625588417
1652389089039336400,0.91533642578125,0.2390505075454712,-1.8596802949905396,0.07881932705640793
1652389089049334000,0.925333984375,0.24638089537620544,-2.1681673526763916,0.15701009333133698
1652389089059331600,0.93533154296875,0.18468350172042847,-2.5090301036834717,0.12952114641666412
1652389089069329200,0.9453291015625,0.08450160175561905,-2.8443949222564697,-0.03357987105846405
1652389089079326700,0.95532666015625,-0.04744529351592064,-3.1669318675994873,-0.31763219833374023
1652389089089324300,0.96532421875,-0.16412055492401123,-3.452816963195801,-0.6523863673210144
1652389089099321900,0.97532177734375,-0.1598445028066635,-3.699606418609619,-1.093430995941162
1652389089109319400,0.9853193359375,-0.007739051710814238,-3.695941209793091,-1.2809666395187378
1652389089119317000,0.99531689453125,0.19079215824604034,-3.5969810485839844,-1.4214657545089722
1652389089129314600,1.005314453125,0.40215152502059937,-3.3984498977661133,-1.511873722076416
1652389089139312000,1.01531201171875,0.6458867788314819,-3.1455514430999756,-1.488050103187561
1652389089149309700,1.025309814453125,0.8627439141273499,-3.118062734603882,-1.4575066566467285
1652389089159307300,1.035307373046875,0.9745323061943054,-3.085075855255127,-1.4226875305175781
1652389089169304800,1.045304931640625,0.9714779853820801,-3.0191025733947754,-1.4349048137664795
1652389089179302400,1.055302490234375,0.8920654058456421,-3.0276546478271484,-1.4843848943710327
1652389089189300000,1.065300048828125,0.7411817908287048,-3.076524019241333,-1.53264319896698
1652389089199297500,1.075297607421875,0.5774698257446289,-3.2622268199920654,-1.610834002494812
1652389089209295000,1.085295166015625,0.45285332202911377,-3.515125036239624,-1.7537763118743896
1652389089219292700,1.095292724609375,0.41803401708602905,-3.699606418609619,-1.9064927101135254
1652389089229290200,1.105290283203125,0.590298056602478,-3.827888250350952,-2.0103397369384766
1652389089239287800,1.115287841796875,0.8395310640335083,-3.8956940174102783,-1.969411849975586
1652389089249285400,1.125285400390625,1.1547375917434692,-3.9659435749053955,-1.8411301374435425
1652389089259283000,1.135282958984375,1.509039282798767,-3.944563388824463,-1.6810834407806396
1652389089269280500,1.145280517578125,1.8199697732925415,-4.011147499084473,-1.552190899848938
1652389089279278000,1.155278076171875,2.1315109729766846,-4.177914142608643,-1.4904935359954834
1652389089289275400,1.165275390625,2.3911287784576416,-4.257936954498291,-1.552190899848938
1652389089299273000,1.17527294921875,2.5242974758148193,-4.180968284606934,-1.6768074035644531
1652389089309270500,1.1852705078125,2.5530080795288086,-3.8449923992156982,-1.7830978631973267
1652389089319268000,1.19526806640625,2.5108582973480225,-3.1785383224487305,-1.8557908535003662
1652389089329265700,1.205265625,2.411898136138916,-2.5059754848480225,-1.8906102180480957
1652389089339263200,1.21526318359375,2.353255033493042,-1.883504033088684,-1.8435735702514648
1652389089349260800,1.2252607421875,2.4216721057891846,-1.7271225452423096,-1.8111977577209473
1652389089359258400,1.23525830078125,2.695950508117676,-1.4039748907089233,-1.8166955709457397
1652389089369289200,1.245289306640625,3.2066338062286377,-0.7662314772605896,-2.0463807582855225
1652389089379320000,1.255320068359375,3.472971200942993,-0.2818153500556946,-2.254075050354004
1652389089389351200,1.26535107421875,3.6550090312957764,0.15312069654464722,-2.4513845443725586
1652389089399382000,1.275382080078125,3.7026565074920654,0.5654547810554504,-2.633422374725342
1652389089409412900,1.285412841796875,3.6385157108306885,0.9832865595817566,-2.7830841541290283
1652389089419443700,1.295443603515625,3.498016595840454,1.3852359056472778,-2.8979270458221436
1652389089429474600,1.305474609375,3.3007071018218994,1.749922513961792,-2.9724526405334473
1652389089439505400,1.31550537109375,3.0691893100738525,2.063296318054199,-2.9877240657806396
1652389089449536300,1.325536376953125,2.7228286266326904,2.3931636810302734,-2.879601001739502
1652389089459567400,1.3355673828125,2.60920786857605,2.425539255142212,-2.8142385482788086
1652389089469598200,1.34559814453125,2.2927794456481934,2.2178452014923096,-2.5179686546325684
1652389089479629000,1.355629150390625,2.085085153579712,1.9435667991638184,-2.2467446327209473
1652389089489660000,1.365659912109375,1.8663954734802246,1.6644014120101929,-1.951696753501892
1652389089499690800,1.375690673828125,1.6141082048416138,1.4108922481536865,-1.6725313663482666
1652389089509721600,1.3857216796875,1.3428840637207031,1.155550479888916,-1.4178005456924438
1652389089519752700,1.395752685546875,1.073492407798767,0.9344173669815063,-1.1765087842941284
1652389089529783600,1.405783447265625,0.8193724751472473,0.7731489539146423,-0.9462125301361084
1652389089539814400,1.415814453125,0.581135094165802,0.6607496738433838,-0.744016170501709
1652389089549845200,1.42584521484375,0.3838255703449249,0.6057718396186829,-0.572363018989563
1652389089559876000,1.4358759765625,0.25554385781288147,0.5184180736541748,-0.4312531352043152
1652389089569907000,1.445906982421875,0.15169677138328552,0.3858603537082672,-0.3536732494831085
1652389089579937800,1.455937744140625,0.059456124901771545,0.3015609383583069,-0.31763219833374023
1652389089589968600,1.46596875,-0.0022412645630538464,0.24902655184268951,-0.30663663148880005
1652389089599999500,1.47599951171875,-0.023010682314634323,0.20748771727085114,-0.31518876552581787
1652389089610030600,1.486030517578125,-0.022399818524718285,0.13784907758235931,-0.34756460785865784
1652389089620061400,1.4960615234375,0.0014239267911762,0.09997542202472687,-0.35122978687286377
1652389089630092300,1.50609228515625,0.03196718916296959,0.07431908696889877,-0.3145778775215149
1652389089640123100,1.516123046875,0.06067785620689392,0.04377582669258118,-0.23516540229320526
1652389089650154000,1.526154052734375,0.09366457909345627,-0.005704259965568781,-0.12154447287321091
1652389089660184800,1.536184814453125,0.11809919029474258,-0.07961896061897278,0.00612636748701334
1652389089670182400,1.546182373046875,0.12909474968910217,-0.1590314358472824,0.1301320195198059
1652389089680180000,1.556179931640625,0.13153822720050812,-0.22439400851726532,0.24253122508525848
1652389089690177500,1.566177490234375,0.14375552535057068,-0.2567698657512665,0.35615214705467224
1652389089700175000,1.576175048828125,0.14680986106395721,-0.30869340896606445,0.4532797336578369
1652389089710172700,1.586172607421875,0.14009033143520355,-0.32274332642555237,0.5235292315483093
1652389089720170200,1.596170166015625,0.12909474968910217,-0.3013630509376526,0.5607919692993164
1652389089730167800,1.606167724609375,0.10893621295690536,-0.2592133581638336,0.5638462901115417
1652389089740164400,1.616164306640625,0.06922997534275055,-0.1944616287946701,0.5021489858627319
1652389089750162000,1.626161865234375,0.041741032153367996,-0.13276423513889313,0.4147952198982239
1652389089760159500,1.636159423828125,0.02280420996248722,-0.035025790333747864,0.29506564140319824
1652389089770157000,1.646156982421875,0.029523726552724838,0.09997542202472687,0.13929499685764313
1652389089780154600,1.656154541015625,0.10649275034666061,0.32171952724456787,-0.02502775937318802
1652389089790152200,1.666152099609375,0.2579873204231262,0.5678982138633728,-0.16491588950157166
1652389089800149800,1.676149658203125,0.3850473165512085,0.8122442960739136,-0.29014328122138977
1652389089810147000,1.68614697265625,0.49317044019699097,0.9527432918548584,-0.36222538352012634
1652389089820145000,1.696144775390625,0.625728189945221,1.0260471105575562,-0.3652797043323517
1652389089830142500,1.706142578125,0.7723358869552612,1.0193276405334473,-0.3139670193195343
1652389089840139800,1.716139892578125,0.8890110850334167,0.9790105223655701,-0.2541022300720215
1652389089850137300,1.726137451171875,1.0276775360107422,0.8641678690910339,-0.16613763570785522
1652389089860135000,1.736135009765625,1.0728815793991089,0.8201855421066284,-0.1276531219482422
1652389089870132500,1.746132568359375,1.2567518949508667,0.7432165741920471,0.008569829165935516
1652389089880130000,1.756130126953125,1.4662787914276123,0.7804793119430542,0.06843462586402893
1652389089890127600,1.766127685546875,1.7301726341247559,0.8061356544494629,0.09653442353010178
1652389089900125200,1.776125244140625,1.920762538909912,0.7755923867225647,0.13257546722888947
1652389089910122800,1.786122802734375,2.0612614154815674,0.7707054615020752,0.18022295832633972
1652389089920120300,1.796120361328125,2.213977813720703,0.8696656227111816,0.20954449474811554
1652389089930118000,1.806117919921875,2.3941831588745117,0.8641678690910339,0.2620789110660553
1652389089940115500,1.816115478515625,2.545677661895752,0.8488962650299072,0.3891388773918152
1652389089950113000,1.826113037109375,2.5835511684417725,0.892878532409668,0.5333030819892883
1652389089960110600,1.836110595703125,2.5786643028259277,0.8849372267723083,0.682965099811554
1652389089970108200,1.846108154296875,2.6318094730377197,0.7957509160041809,0.9358632564544678
1652389089980105700,1.856105712890625,2.7252719402313232,0.6974015831947327,1.2846673727035522
1652389089990103300,1.866103271484375,2.766810894012451,0.626541256904602,1.5949867963790894
1652389090000100900,1.876100830078125,2.768643617630005,0.5214724540710449,1.81550931930542
1652389090010098400,1.886098388671875,2.791856527328491,0.4414491057395935,1.9022520780563354
1652389090020096000,1.896095947265625,2.9036448001861572,0.5123094320297241,1.841165542602539
1652389090030093300,1.90609326171875,3.0630805492401123,0.6576953530311584,1.7397619485855103
1652389090040092200,1.916092041015625,3.168149471282959,0.8104116916656494,1.616367220878601
1652389090050089700,1.92608984375,3.1699819564819336,0.912426233291626,1.4819767475128174
1652389090060087300,1.93608740234375,3.089958429336548,0.9985582232475281,1.3695776462554932
1652389090070084900,1.9460849609375,2.944572687149048,1.025436282157898,1.3304821252822876
1652389090080082400,1.95608251953125,2.6678507328033447,0.8287376761436462,1.1374489068984985
1652389090090080000,1.966080078125,2.37585711479187,0.6583063006401062,1.0018367767333984
1652389090100077600,1.97607763671875,2.0728678703308105,0.49031832814216614,0.6976258754730225
1652389090110075100,1.9860751953125,1.834019660949707,0.6277629733085632,0.39524751901626587
1652389090120072700,1.99607275390625,1.7362812757492065,0.6613606214523315,0.2523050606250763
1652389090130070300,2.0060703125,1.652592658996582,0.6650257706642151,0.24497468769550323
1652389090140067800,2.01606787109375,1.3880879878997803,0.4530555307865143,-0.02502775937318802
1652389090150065400,2.0260654296875,1.1064791679382324,0.3211086392402649,-0.44285959005355835
1652389090160063000,2.03606298828125,1.0380622148513794,0.23864184319972992,-0.9474342465400696
1652389090170059500,2.0460595703125,1.1229724884033203,0.41945794224739075,-0.5497609972953796
1652389090180057000,2.05605712890625,1.02828848361969,0.34859758615493774,-0.08794687688350677
1652389090190054700,2.0660546875,0.9140565991401672,0.21542894840240479,0.41113004088401794
1652389090200052200,2.07605224609375,0.8590787649154663,0.15006637573242188,1.147222638130188
1652389090210049800,2.0860498046875,0.8431962132453918,0.05660399794578552,1.7464814186096191
1652389090220047400,2.09604736328125,0.8981741070747375,0.153731569647789,1.575439214706421
1652389090230045000,2.106044921875,1.0117950439453125,0.5031464695930481,1.2278567552566528
1652389090240042500,2.11604248046875,1.1015923023223877,0.720614492893219,1.1325619220733643
1652389090250040000,2.1260400390625,1.045392632484436,0.7878096699714661,1.0891904830932617
1652389090260037400,2.136037353515625,0.8712960481643677,0.7450491189956665,0.8869940638542175
1652389090270035000,2.146034912109375,0.6306151151657104,0.26735252141952515,0.24008774757385254
1652389090280032500,2.156032470703125,0.3612235486507416,0.7028993964195251,0.17044910788536072
1652389090290030000,2.166030029296875,0.49317044019699097,0.6601388454437256,0.04033482074737549
1652389090300027600,2.176027587890625,0.32762598991394043,0.5239158868789673,-0.27609339356422424
1652389090310025500,2.186025390625,0.17674225568771362,0.3192760646343231,-0.7458487749099731
1652389090320023000,2.19602294921875,0.006310848519206047,0.274682879447937,-1.018905520439148
1652389090330020600,2.2060205078125,-0.07737769186496735,0.01689775474369526,-0.7855550050735474
1652389090340018200,2.21601806640625,-0.2160440981388092,-0.1743030697107315,-0.5143308043479919
1652389090350015500,2.226015380859375,-0.3223346471786499,-0.3826081156730652,-0.39215776324272156
1652389090360013000,2.236012939453125,-0.30400869250297546,-0.4632423520088196,-0.3939903676509857
1652389090370010600,2.2460107421875,-0.2777414917945862,-0.4162057042121887,-0.4343074560165405
1652389090380008200,2.25600830078125,-0.29851090908050537,-0.3367932140827179,-0.44835737347602844
1652389090390005800,2.266005859375,-0.30034351348876953,-0.25249382853507996,-0.4465247690677643
1652389090400003300,2.27600341796875,-0.2924022376537323,-0.17674651741981506,-0.4599637985229492
1652389090410001000,2.2860009765625,-0.26430246233940125,0.005291314795613289,-0.41659238934516907
1652389090419998500,2.29599853515625,-0.2209310084581375,0.044386692345142365,-0.2583782970905304
1652389090429996000,2.30599609375,-0.17939218878746033,0.041943229734897614,-0.06962092220783234
1652389090439993600,2.31599365234375,-0.1506815254688263,0.07615167647600174,-0.06229053810238838
1652389090450024400,2.3260244140625,-0.14274026453495026,0.15984022617340088,-0.1325400322675705
1652389090460055600,2.3360556640625,-0.12135998904705048,0.27223944664001465,-0.16430503129959106
1652389090470087200,2.346087158203125,-0.11647307127714157,0.29850661754608154,-0.18629619479179382
1652389090480118000,2.356117919921875,-0.11402960121631622,0.3052261471748352,-0.17163541913032532
1652389090490182400,2.366182373046875,-0.0847080796957016,0.21298550069332123,-0.10321851074695587
1652389090500246500,2.37624658203125,-0.051721349358558655,0.13723820447921753,-0.03052554652094841
1652389090510344200,2.38634423828125,-0.05538653954863548,0.10058629512786865,0.02506319060921669
1652389090520441600,2.396441650390625,-0.07249076664447784,0.11402533203363419,0.061715103685855865
1652389090530539300,2.406539306640625,-0.04500183090567589,0.13601647317409515,0.08248452097177505
1652389090540636700,2.41663671875,-0.046223558485507965,0.19282695651054382,0.0751541331410408
1652389090550734300,2.426734375,-0.005906456150114536,0.27651548385620117,0.10691913962364197
1652389090560831700,2.436831787109375,0.041741032153367996,0.27223944664001465,0.12157990038394928
1652389090570929400,2.446929443359375,0.061899587512016296,0.23619838058948517,0.12341248989105225
1652389090581026800,2.45702685546875,0.07228429615497589,0.1494555026292801,0.11852557212114334
1652389090591157800,2.46715771484375,0.08755592256784439,-0.04418877139687538,0.08859317749738693
1652389090601288700,2.477288818359375,0.03990843519568443,-0.17185960710048676,0.029950112104415894
1652389090611419400,2.48741943359375,0.0008130616624839604,-0.29281091690063477,0.035447899252176285
1652389090621550300,2.49755029296875,-0.08043201267719269,-0.30380648374557495,0.0549955852329731
1652389090631681000,2.507680908203125,-0.12197085469961166,-0.1688052862882614,-0.034190740436315536
1652389090641812000,2.51781201171875,-0.05355394259095192,0.0578257255256176,-0.1820201277732849
1652389090651976200,2.52797607421875,0.025247670710086823,0.26796337962150574,-0.33901247382164
1652389090662140400,2.538140380859375,-0.07432336360216141,0.4530555307865143,-0.4251444935798645
1652389090672304600,2.5483046875,-0.11952739208936691,0.47565755248069763,-0.3909360468387604
1652389090682468900,2.55846875,-0.15740102529525757,0.4774901568889618,-0.2834237813949585
1652389090692666400,2.568666259765625,-0.22276361286640167,0.3925798833370209,-0.18079839646816254
1652389090702864000,2.57886376953125,-0.27529802918434143,0.26307645440101624,-0.147200807929039
1652389090713061400,2.589061279296875,-0.2606372535228729,0.15495328605175018,-0.16369417309761047
1652389090723259000,2.5992587890625,-0.18855516612529755,0.12685349583625793,-0.23088935017585754
1652389090733456400,2.609456298828125,-0.10364490002393723,0.17022493481636047,-0.29136502742767334
1652389090743654000,2.61965380859375,-0.016291163861751556,0.21359635889530182,-0.3744426965713501
1652389090753818000,2.629818115234375,0.0667865052819252,0.2795698344707489,-0.46423986554145813
1652389090763982000,2.639982177734375,0.15536196529865265,0.31744346022605896,-0.5577022433280945
1652389090774146300,2.650146240234375,0.18712696433067322,0.3406563401222229,-0.6536080837249756
1652389090784310500,2.660310546875,0.14009033143520355,0.34554323554039,-0.7605095505714417
1652389090794441500,2.67044140625,0.047849684953689575,0.3504301905632019,-0.7165272235870361
1652389090804572200,2.680572265625,-0.048667021095752716,0.39441248774528503,-0.6212322115898132
1652389090814669800,2.690669921875,-0.12746864557266235,0.5281919836997986,-0.5277698636054993
1652389090824767200,2.700767333984375,-0.17450526356697083,0.6686909794807434,-0.4972265958786011
1652389090834865000,2.710864990234375,-0.15801189839839935,0.7969726324081421,-0.5204394459724426
1652389090844962300,2.72096240234375,-0.14945979416370392,0.8995980024337769,-0.5693086981773376
1652389090855093200,2.73109326171875,-0.1757269948720932,0.930141270160675,-0.6059606075286865
1652389090865224200,2.74122412109375,-0.22765053808689117,0.9167022705078125,-0.6102367043495178
1652389090875355000,2.75135498046875,-0.32050204277038574,0.8886024951934814,-0.5344893932342529
1652389090885485800,2.76148583984375,-0.3828102946281433,0.9295304417610168,-0.38238394260406494
1652389090895583200,2.771583251953125,-0.33943888545036316,0.9759562015533447,-0.3359581530094147
1652389090905681000,2.781680908203125,-0.27896323800086975,0.9765670895576477,-0.3347364366054535
1652389090915778300,2.7917783203125,-0.2966783046722412,0.9521324634552002,-0.4043751060962677
1652389090925876000,2.8018759765625,-0.4341229796409607,0.9906169176101685,-0.5100547671318054
1652389090936007000,2.8120068359375,-0.5324723124504089,0.911815345287323,-0.5851911902427673
1652389090946137600,2.8221376953125,-0.5642372965812683,0.9845082759857178,-0.5882455706596375
1652389090956235000,2.832235107421875,-0.6149390935897827,0.9142587780952454,-0.6517755389213562
1652389090966332700,2.842332763671875,-0.6894646883010864,0.8989871740341187,-0.6902599930763245
1652389090976463600,2.852463623046875,-0.7102340459823608,0.8006379008293152,-0.7653964161872864
1652389090986594300,2.86259423828125,-0.7016819715499878,0.7230579853057861,-0.7556226253509521
1652389090996725200,2.872725341796875,-0.6803017258644104,0.5898893475532532,-0.7336314916610718
1652389091006856200,2.882856201171875,-0.7303926348686218,0.3858603537082672,-0.6969795823097229
1652389091017020400,2.8930205078125,-0.7939226031303406,0.11280359327793121,-0.6352821588516235
1652389091027184400,2.903184326171875,-0.7676553726196289,0.017508618533611298,-0.629784345626831
1652389091037348600,2.9133486328125,-0.6961842179298401,-0.11138395220041275,-0.629784345626831
1652389091047512800,2.923512939453125,-0.5434678792953491,0.0675995722413063,-0.5351002216339111
1652389091057710300,2.93371044921875,-0.34982356429100037,0.05721485987305641,-0.6120692491531372
1652389091067907800,2.943907958984375,-0.18183565139770508,0.06332351267337799,-0.7458487749099731
1652389091078138600,2.954138671875,-0.0694364383816719,-0.043577902019023895,-0.8894020915031433
1652389091088369700,2.96436962890625,-0.010182512924075127,-0.34839966893196106,-1.0995396375656128
1652389091098633700,2.9746337890625,-0.266135036945343,-0.6819320917129517,-1.3115099668502808
1652389091108898000,2.98489794921875,-0.5184224247932434,-1.148022174835205,-1.4196330308914185
1652389091119195400,2.9951953125,-0.7193970084190369,-1.6110581159591675,-1.6041144132614136
1652389091129493000,3.005492919921875,-1.3162124156951904,-1.7894307374954224,-1.7696589231491089
1652389091139823900,3.015823974609375,-1.7816917896270752,-1.7497245073318481,-1.7006311416625977
1652389091150154500,3.026154541015625,-1.770085334777832,-1.7362855672836304,-1.5020999908447266
1652389091160452000,3.0364521484375,-1.4035661220550537,-1.512097954750061,-1.2094954252243042
1652389091170749700,3.046749755859375,-0.997340738773346,-1.0802161693572998,-0.973090648651123
1652389091181080300,3.057080322265625,-0.609441339969635,-0.591524064540863,-0.7666181921958923
1652389091191411200,3.0674111328125,-0.4542815685272217,-0.2298918068408966,-0.7024772763252258
1652389091201775400,3.077775390625,-0.3724255859851837,0.002236988628283143,-0.6713231801986694
1652389091212139500,3.088139404296875,-0.2655242085456848,0.18671828508377075,-0.6774318218231201
1652389091222537000,3.098536865234375,-0.06332778930664062,0.5349115133285522,-0.8332024812698364
1652389091232934400,3.108934326171875,0.16941186785697937,0.46954888105392456,-1.125196099281311
1652389091243298600,3.119298583984375,0.16024889051914215,0.21115291118621826,-1.0421184301376343
1652389091253662700,3.129662841796875,0.04357362911105156,0.06393437832593918,-0.8496958613395691
1652389091264027000,3.14002685546875,-0.10364490002393723,-0.17796826362609863,-0.7055315971374512
1652389091274391000,3.15039111328125,-0.1659531593322754,-0.16697268187999725,-0.5418197512626648
1652389091284721700,3.1607216796875,-0.06821471452713013,0.13174042105674744,-0.4013207256793976
1652389091295052500,3.171052490234375,-0.057830002158880234,0.31744346022605896,-0.2125633805990219
1652389091305350100,3.18135009765625,-0.10364490002393723,0.047441016882658005,-0.0763404369354248
1652389091315647500,3.1916474609375,-0.10608835518360138,-0.12237952649593353,-0.12948571145534515
1652389091325911600,3.20191162109375,-0.04988875240087509,-0.07656462490558624,-0.24738270044326782
1652389091336175900,3.21217578125,0.0466279573738575,-0.15292279422283173,-0.3836056590080261
1652389091346440000,3.22243994140625,0.15414024889469147,-0.2604350447654724,-0.5344893932342529
1652389091356704300,3.232704345703125,0.23966138064861298,-0.23783305287361145,-0.6707123517990112
1652389091366935000,3.24293505859375,0.3648887276649475,0.059047453105449677,-0.8319807648658752
1652389091377165800,3.253165771484375,0.36733222007751465,0.15189896523952484,-0.7666181921958923
1652389091387363300,3.26336328125,0.25676560401916504,0.08348206430673599,-0.5509827136993408
1652389091397560800,3.273560791015625,0.1675792634487152,-0.034414924681186676,-0.3182430863380432
1652389091407725000,3.28372509765625,0.18895956873893738,-0.02708454243838787,-0.2895324230194092
1652389091417889300,3.29388916015625,0.41864490509033203,-0.07656462490558624,-0.4153706729412079
1652389091428053200,3.30405322265625,0.6208413243293762,-0.058238670229911804,-0.3933795094490051
1652389091438217500,3.314217529296875,0.7320187091827393,-0.046021364629268646,-0.3145778775215149
1652389091448381700,3.324381591796875,0.6776517629623413,0.014454293064773083,-0.2797585725784302
1652389091458546000,3.3345458984375,0.551202654838562,0.2893436551094055,-0.24005232751369476
1652389091468710100,3.344710205078125,0.3691647946834564,0.2636873126029968,-0.1374269723892212
1652389091478874400,3.354874267578125,0.2078963816165924,-0.4113187789916992,-0.19179397821426392
1652389091489005000,3.365005126953125,0.1370360106229782,-0.8303723335266113,-0.28159114718437195
1652389091499136000,3.375135986328125,-0.04072577506303787,-0.5786958336830139,-0.06290140748023987
1652389091509233400,3.3852333984375,-0.20321592688560486,-0.46079885959625244,0.3237763047218323
1652389091519331000,3.3953310546875,-0.1561793088912964,-0.5444874167442322,0.6762455701828003
1652389091529395200,3.405395263671875,0.04051930084824562,-0.7931095361709595,0.6676934361457825
1652389091539459300,3.415459228515625,0.289141446352005,-0.7918878197669983,0.4325103163719177
1652389091549523500,3.4255234375,0.664823591709137,-0.8309832215309143,0.085538849234581
1652389091559587800,3.435587890625,0.9293282628059387,-0.7228600382804871,-0.11238149553537369
1652389091569652000,3.44565185546875,0.9311608076095581,-0.37466686964035034,-0.15453119575977325
1652389091579716400,3.45571630859375,0.49317044019699097,0.31744346022605896,-0.15392033755779266
1652389091589780500,3.465780517578125,0.04907141625881195,0.5391875505447388,-0.1820201277732849
1652389091599844600,3.4758447265625,-0.09753623604774475,0.5556809306144714,-0.24188491702079773
1652389091609908700,3.48590869140625,0.013641231693327427,0.45794248580932617,-0.27670425176620483
1652389091619973000,3.49597314453125,0.01730642281472683,0.6802974343299866,-0.3347364366054535
1652389091630037200,3.506037353515625,-0.005906456150114536,0.6894603967666626,-0.4312531352043152
1652389091640101400,3.516101318359375,-0.01384770404547453,0.5379658341407776,-0.5497609972953796
1652389091650165800,3.526165771484375,-0.04683442786335945,0.5263593792915344,-0.6548298597335815
1652389091660230000,3.53622998046875,-0.09203845262527466,0.43472957611083984,-0.6273408532142639
1652389091670294000,3.5462939453125,-0.2319265902042389,0.3669235408306122,-0.5766391158103943
1652389091680358100,3.556358154296875,-0.40663406252861023,0.5929436683654785,-0.6047388911247253
1652389091690455800,3.566455810546875,-0.10181230306625366,0.7273340225219727,0.19427286088466644
1652389091700553500,3.576553466796875,-0.007128186523914337,0.4420599639415741,0.3072829246520996
1652389091710651000,3.58665087890625,-0.20260506868362427,0.22153761982917786,0.12402336299419403
1652389091720748500,3.59674853515625,-0.5880610346794128,0.1647271364927292,0.23825515806674957
1652389091730812700,3.606812744140625,-0.8757785558700562,0.6784648299217224,0.44717109203338623
1652389091740876800,3.616876708984375,-1.020553708076477,0.9130370616912842,0.4948185682296753
1652389091750907600,3.62690771484375,-0.912430465221405,0.7566555738449097,0.4942077100276947
1652389091760938500,3.6369384765625,-0.599667489528656,0.4426708519458771,0.37508898973464966
1652389091770969300,3.64696923828125,-0.2917913794517517,0.2588003873825073,0.13501892983913422
1652389091781000200,3.657000244140625,-0.14212940633296967,0.10669494420289993,0.08065192401409149
1652389091791031000,3.667031005859375,-0.18000304698944092,0.13112956285476685,0.02506319060921669
1652389091801062100,3.677062255859375,-0.2563612163066864,0.29850661754608154,0.01040242426097393
1652389091811093000,3.687093017578125,-0.36081916093826294,0.5367440581321716,0.015289346687495708
1652389091821123800,3.697123779296875,-0.4591684639453888,0.5721742510795593,-0.12032274156808853
1652389091831154700,3.70715478515625,-0.33394110202789307,0.5843915343284607,-0.17591147124767303
1652389091841185500,3.717185546875,-0.24047870934009552,0.588667631149292,-0.40254247188568115
1652389091851216400,3.72721630859375,-0.19955073297023773,0.47382494807243347,-0.6151235699653625
1652389091861247200,3.737247314453125,-0.1457946002483368,0.3571496903896332,-0.6181778907775879
1652389091871311600,3.7473115234375,-0.08715153485536575,0.35287362337112427,-0.45324429869651794
1652389091881375700,3.757375732421875,-0.12258172035217285,0.38830384612083435,-0.21195253729820251
1652389091891439900,3.76743994140625,-0.19771814346313477,0.45427727699279785,-0.015253915451467037
1652389091901504300,3.777504150390625,-0.054164811968803406,0.49948129057884216,0.020787134766578674
1652389091911568400,3.787568359375,0.0008130616624839604,0.49520522356033325,-0.15636378526687622
1652389091921632500,3.797632568359375,0.08877765387296677,0.5520156621932983,-0.41781410574913025
1652389091931697000,3.80769677734375,0.045406222343444824,0.8574482798576355,-0.5638108849525452
1652389091941761000,3.817760986328125,0.036243245005607605,0.9179239869117737,-0.6016845703125
1652389091951825200,3.8278251953125,0.00814344547688961,0.7548229694366455,-0.6022953987121582
1652389091961889500,3.8378896484375,-0.019956355914473534,0.5941653847694397,-0.5705304145812988
1652389091971953700,3.84795361328125,-0.011404243297874928,0.3449324071407318,-0.5155525803565979
1652389091982017800,3.858017822265625,-0.008349917829036713,0.19099435210227966,-0.4495790898799896
1652389091992048600,3.868048583984375,0.005699983797967434,0.0578257255256176,-0.40254247188568115
1652389092002079500,3.87807958984375,0.010586905293166637,-0.015478103421628475,-0.3408450782299042
1652389092012110300,3.8881103515625,0.00020219638827256858,-0.030749734491109848,-0.25165876746177673
1652389092022141400,3.898141357421875,0.0008130616624839604,-0.0020390681456774473,-0.18507444858551025
1652389092032172300,3.90817236328125,-0.01079337764531374,0.03644544258713722,-0.13987042009830475
1652389092042203100,3.918203125,-0.030341066420078278,0.11524706333875656,-0.05312756076455116
1652389092052234000,3.92823388671875,-0.04072577506303787,0.25269174575805664,0.09103663265705109
1652389092062264800,3.938264892578125,-0.0022412645630538464,0.4628293812274933,0.3928040862083435
1652389092072295700,3.948295654296875,0.10466015338897705,0.5538483262062073,0.6340958476066589
1652389092082326500,3.958326416015625,0.24027223885059357,0.6674692630767822,0.8112467527389526
1652389092092357600,3.968357666015625,0.3496171236038208,0.3467649817466736,0.785590410232544
1652389092102388500,3.978388427734375,0.12604042887687683,0.005291314795613289,0.5449094772338867
1652389092112419300,3.98841943359375,-0.07187990844249725,-0.29281091690063477,0.29567646980285645
1652389092122450200,3.9984501953125,-0.12258172035217285,-0.5609807968139648,0.17839036881923676
1652389092132481000,4.00848095703125,-0.15251411497592926,-0.7344664931297302,0.13318634033203125
1652389092142512000,4.01851220703125,-0.1763378530740738,-0.8230419158935547,0.13135375082492828
1652389092152543000,4.02854296875,-0.22703967988491058,-0.32824110984802246,0.1502905637025833
1652389092162573800,4.03857373046875,-0.19893987476825714,0.16594886779785156,0.00673723267391324
1652389092172571400,4.0485712890625,-0.09264932572841644,0.3058370053768158,-0.21500685811042786
1652389092182569000,4.05856884765625,-0.009571647271513939,0.48482051491737366,-0.3750535547733307
1652389092192566500,4.06856640625,0.013030366972088814,0.6839625835418701,-0.44835737347602844
1652389092202564000,4.078564208984375,0.00997603964060545,0.701677680015564,-0.4300313889980316
1652389092212561400,4.0885615234375,0.007532579358667135,0.6741887927055359,-0.4055967926979065
1652389092222559000,4.09855908203125,0.004478252958506346,0.626541256904602,-0.38788172602653503
1652389092232556500,4.108556640625,-0.007739051710814238,0.5581243634223938,-0.38727083802223206
1652389092242554000,4.11855419921875,-0.016902031376957893,0.5459070205688477,-0.37261006236076355
1652389092252551700,4.1285517578125,-0.018734626471996307,0.5055899620056152,-0.3243517279624939
1652389092262549200,4.13854931640625,-0.019956355914473534,0.44939035177230835,-0.29625192284584045
1652389092272546800,4.148546875,-0.03217365965247154,0.4121275544166565,-0.28036946058273315
1652389092282544400,4.15854443359375,-0.043169233947992325,0.4127384424209595,-0.2748716473579407
1652389092292542000,4.1685419921875,-0.04683442786335945,0.365090936422348,-0.2846454679965973
1652389092302539500,4.17853955078125,-0.054775677621364594,0.3925798833370209,-0.2986954152584076
1652389092312537000,4.188537109375,-0.07615596055984497,0.41334930062294006,-0.2986954152584076
1652389092322534700,4.19853466796875,-0.09631451219320297,0.4005211293697357,-0.27609339356422424
1652389092332532200,4.2085322265625,-0.06271692365407944,0.2300897240638733,-0.18935051560401917
1652389092342529800,4.21852978515625,0.047849684953689575,0.07737341523170471,-0.0964989960193634
1652389092352527400,4.22852734375,0.1877378225326538,-0.05151915177702904,0.020176267251372337
1652389092362525000,4.23852490234375,0.32273903489112854,-0.17552480101585388,0.1502905637025833
1652389092372522500,4.2485224609375,0.41192537546157837,-0.3453453481197357,0.29506564140319824
1652389092382520000,4.25852001953125,0.399097204208374,-0.4534684717655182,0.43128857016563416
1652389092392517600,4.268517578125,0.30196964740753174,-0.5127224326133728,0.5546833276748657
1652389092402515200,4.27851513671875,0.15414024889469147,-0.49561819434165955,0.6670826077461243
1652389092412512800,4.2885126953125,-0.006517321337014437,-0.4821791350841522,0.775205671787262
1652389092422510300,4.29851025390625,-0.18000304698944092,-0.3966580331325531,0.8845505714416504
1652389092432508000,4.3085078125,-0.35471051931381226,-0.26348936557769775,0.9682391285896301
1652389092442505500,4.31850537109375,-0.49704211950302124,-0.1388728767633438,1.028714895248413
1652389092452503000,4.3285029296875,-0.580119788646698,-0.05946039780974388,1.0678101778030396
1652389092462500400,4.338500244140625,-0.6241021156311035,-0.038080114871263504,1.0879687070846558
1652389092472498000,4.348497802734375,-0.5880610346794128,-0.11688173562288284,1.0617015361785889
1652389092482495500,4.35849560546875,-0.49154430627822876,-0.28242620825767517,1.0122214555740356
1652389092492493000,4.3684931640625,-0.3626517653465271,-0.5591481924057007,0.9511348605155945
1652389092502490600,4.37849072265625,-0.2258179485797882,-0.827928900718689,0.8986004590988159
1652389092512488200,4.38848828125,-0.1152513325214386,-1.044175148010254,0.8986004590988159
1652389092522485800,4.39848583984375,-0.09448191523551941,-1.2304891347885132,0.9786238670349121
1652389092532483300,4.4084833984375,-0.1360207498073578,-1.235376000404358,1.1301183700561523
1652389092542481000,4.41848095703125,-0.20382679998874664,-1.065555453300476,1.2889434099197388
1652389092552478500,4.428478515625,-0.2716328501701355,-0.798607349395752,1.3909578323364258
1652389092562476000,4.43847607421875,-0.3577648401260376,-0.5243288278579712,1.3866817951202393
1652389092572473600,4.4484736328125,-0.5489656329154968,-0.15719883143901825,1.172268033027649
1652389092582471200,4.45847119140625,-0.5935588479042053,-0.05701694265007973,1.0671993494033813
1652389092592468700,4.46846875,-0.6167717576026917,0.010178237222135067,0.7025127410888672
1652389092602466300,4.47846630859375,-0.5544634461402893,-0.11993605643510818,0.48137950897216797
1652389092612463900,4.4884638671875,-0.5135354399681091,-0.31296947598457336,0.297509104013443
1652389092622461400,4.49846142578125,-0.49704211950302124,-0.6342846155166626,0.17716863751411438
1652389092632459000,4.508458984375,-0.5055942535400391,-0.8731329441070557,0.11974730342626572
1652389092642456600,4.51845654296875,-0.502539873123169,-1.0142427682876587,0.1105843260884285
1652389092652454100,4.5284541015625,-0.4579467475414276,-1.1235876083374023,0.1509014219045639
1652389092662451700,4.53845166015625,-0.4292360842227936,-1.0130211114883423,0.21015536785125732
1652389092672449300,4.54844921875,-0.3791451156139374,-0.816933274269104,0.277350515127182
1652389092682446800,4.55844677734375,-0.3681495487689972,-0.65566486120224,0.33538272976875305
1652389092692444400,4.5684443359375,-0.34554755687713623,-0.47607049345970154,0.3891388773918152
1652389092702442000,4.57844189453125,-0.35471051931381226,-0.3465670645236969,0.4031887948513031
1652389092712439300,4.588439208984375,-0.3327193558216095,-0.2702089250087738,0.3970801532268524
1652389092722436900,4.598436767578125,-0.31561514735221863,-0.30319565534591675,0.3634825348854065
1652389092732434400,4.608434326171875,-0.2007724791765213,-0.34839966893196106,0.2883461117744446
1652389092742432000,4.618431884765625,-0.13968594372272491,-0.3905493915081024,0.175946906208992
1652389092752429600,4.6284296875,0.01974988356232643,-0.5719763040542603,0.10142134875059128
1652389092762427100,4.63842724609375,0.1474207192659378,-0.6446692943572998,0.03422616794705391
1652389092772424700,4.6484248046875,0.24210482835769653,-0.7063667178153992,-0.03724506497383118
1652389092782422300,4.65842236328125,0.33312374353408813,-0.7454621195793152,-0.11115975677967072
1652389092792419800,4.668419921875,0.41314709186553955,-0.7613445520401001,-0.18018752336502075
1652389092802417400,4.67841748046875,0.47301191091537476,-0.7674532532691956,-0.22905674576759338
1652389092812415000,4.6884150390625,0.5047768950462341,-0.7674532532691956,-0.25593483448028564
1652389092822412500,4.69841259765625,0.5011116862297058,-0.7540141344070435,-0.2638760805130005
1652389092832410000,4.70841015625,0.45346421003341675,-0.7210274934768677,-0.24738270044326782
1652389092842407700,4.71840771484375,0.36305615305900574,-0.6660495400428772,-0.187517911195755
1652389092852405200,4.7284052734375,0.22438974678516388,-0.5646459460258484,-0.0714535191655159
1652389092862402800,4.73840283203125,-0.03889318183064461,-0.3355714976787567,0.18388815224170685
1652389092872400400,4.748400390625,-0.1952746957540512,-0.26410025358200073,0.38669541478157043
1652389092882398000,4.75839794921875,-0.31439340114593506,-0.2647111117839813,0.5577376484870911
1652389092892395500,4.7683955078125,-0.3986928164958954,-0.31296947598457336,0.6487565636634827
1652389092902393000,4.77839306640625,-0.4390099048614502,-0.4259795546531677,0.6505891680717468
1652389092912390700,4.788390625,-0.4225165545940399,-0.5805284380912781,0.5730093121528625
1652389092922388200,4.79838818359375,-0.3437149226665497,-0.7167513966560364,0.4453384578227997
1652389092932385800,4.8083857421875,-0.22948314249515533,-0.7937204241752625,0.297509104013443
1652389092942383400,4.81838330078125,-0.10669922083616257,-0.8315940499305725,0.1411276012659073
1652389092952381000,4.828380859375,0.014862962998449802,-0.8383135795593262,0.009791559539735317
1652389092962378500,4.83837841796875,0.12115351855754852,-0.7295795679092407,-0.05984707921743393
1652389092972376000,4.8483759765625,0.13764688372612,-0.48462262749671936,-0.023195164278149605
1652389092982373400,4.858373291015625,-0.0010195340728387237,-0.22133968770503998,0.12707768380641937
1652389092992371000,4.868370849609375,-0.3486018776893616,-0.00936945155262947,0.24008774757385254
1652389093002368500,4.878368408203125,-0.4225165545940399,0.06515610218048096,0.0055155023001134396
1652389093012366000,4.888365966796875,-0.3730364739894867,0.11036013811826706,-0.33717989921569824
1652389093022363600,4.89836376953125,-0.2814066708087921,0.03155852109193802,-0.6481102705001831
1652389093032361200,4.908361328125,-0.1653422862291336,-0.19201815128326416,-0.8545827865600586
1652389093042358800,4.91835888671875,-0.10364490002393723,-0.380775511264801,-0.9211670756340027
1652389093052356400,4.9283564453125,-0.07615596055984497,-0.3905493915081024,-0.9003976583480835
1652389093062354000,4.93835400390625,-0.05599740520119667,-0.2647111117839813,-0.8222069144248962
1652389093072351500,4.9483515625,-0.03522798791527748,-0.03563665598630905,-0.6859839558601379
1652389093082349000,4.95834912109375,0.01730642281472683,0.1836639642715454,-0.5039461255073547
1652389093092346600,4.9683466796875,0.06067785620689392,0.3504301905632019,-0.2950302064418793
1652389093102344200,4.97834423828125,0.07289515435695648,0.48543140292167664,-0.07817303389310837
1652389093112341800,4.988341796875,0.05579093471169472,0.569119930267334,0.11180604994297028
1652389093122339300,4.99833935546875,0.06434305012226105,0.6033283472061157,0.2119879573583603
1652389093132337000,5.0083369140625,0.13337081670761108,0.5666764378547668,0.11608211696147919
1652389093142334500,5.01833447265625,0.23538531363010406,0.5495722889900208,-0.05923621356487274
1652389093152332000,5.02833203125,0.3355672359466553,0.5318571925163269,-0.22722415626049042
1652389093162329600,5.03832958984375,0.40887102484703064,0.5947763323783875,-0.3506189286708832
1652389093172327200,5.0483271484375,0.4100927710533142,0.6741887927055359,-0.42758795619010925
1652389093182324700,5.05832470703125,0.3532823324203491,0.7377187609672546,-0.4752354323863983
1652389093192322300,5.068322265625,0.2976935803890228,0.8256833553314209,-0.5045569539070129
1652389093202320000,5.07831982421875,0.2879197299480438,0.9600736498832703,-0.5149416923522949
1652389093212317200,5.088317138671875,0.289141446352005,1.088355302810669,-0.4960048496723175
1652389093222314800,5.098314697265625,0.2640959918498993,1.1549396514892578,-0.44285959005355835
1652389093232312300,5.108312255859375,0.23110924661159515,1.1628810167312622,-0.368334025144577
1652389093242310000,5.118309814453125,0.20117686688899994,1.063309907913208,-0.26876300573349
1652389093252307500,5.128307373046875,0.20056599378585815,1.0248254537582397,-0.24982617795467377
1652389093262305000,5.138304931640625,0.18712696433067322,0.9179239869117737,-0.2486044466495514
1652389093272302600,5.148302490234375,0.18651609122753143,0.8488962650299072,-0.27609339356422424
1652389093282300200,5.158300048828125,0.18468350172042847,0.8012487292289734,-0.35733842849731445
1652389093292297700,5.168297607421875,0.1785748451948166,0.7975835800170898,-0.5173851251602173
1652389093302295300,5.17829541015625,0.15902715921401978,0.779868483543396,-0.7281336784362793
1652389093312292900,5.18829296875,0.14558811485767365,0.7865879535675049,-0.9456017017364502
1652389093322290400,5.19829052734375,0.13642513751983643,0.7267231345176697,-1.0964853763580322
1652389093332288000,5.2082880859375,0.10588188469409943,0.6741887927055359,-1.162458896636963
1652389093342285600,5.21828564453125,0.07228429615497589,0.6864060759544373,-1.162458896636963
1652389093352283100,5.228283203125,0.05212574452161789,0.5752285718917847,-1.112367868423462
1652389093362280700,5.23828076171875,0.053347472101449966,0.5312463045120239,-1.0506705045700073
1652389093372278300,5.2482783203125,0.04907141625881195,0.45427727699279785,-1.0060772895812988
1652389093382275800,5.25827587890625,0.050904009491205215,0.36936700344085693,-0.9804210066795349
1652389093392273400,5.2682734375,0.04846055060625076,0.3547062277793884,-1.010353446006775
1652389093402271000,5.27827099609375,0.12604042887687683,0.34309980273246765,-0.9963034987449646
1652389093412268500,5.2882685546875,0.14986418187618256,0.2814024090766907,-1.007909893989563
1652389093422266000,5.29826611328125,0.1529185026884079,0.42556658387184143,-0.9810318350791931
1652389093432263700,5.308263671875,0.1571945697069168,0.5294137001037598,-0.8930672407150269
1652389093442261200,5.31826123046875,0.13337081670761108,0.539798378944397,-0.8032701015472412
1652389093452258800,5.3282587890625,0.06067785620689392,0.7285557985305786,-0.7287445068359375
1652389093462256000,5.338256103515625,0.018528154119849205,0.8470636010169983,-0.5986302495002747
1652389093472253700,5.348253662109375,-0.05660827085375786,0.8171312212944031,-0.5296024680137634
1652389093482251300,5.358251220703125,-0.08959499001502991,0.8947111368179321,-0.44285959005355835
1652389093492248800,5.368248779296875,-0.13113383948802948,0.8336246013641357,-0.40254247188568115
1652389093502246400,5.378246337890625,-0.154957577586174,0.8568374514579773,-0.3487863540649414
1652389093512244000,5.388243896484375,-0.11280787736177444,0.7865879535675049,-0.27120643854141235
1652389093522241500,5.398241455078125,-0.040114909410476685,0.5135312080383301,-0.1820201277732849
1652389093532239000,5.408239013671875,-0.01384770404547453,0.44511428475379944,-0.11115975677967072
1652389093542236700,5.418236572265625,-0.008349917829036713,0.38402777910232544,-0.020140837877988815
1652389093552234200,5.428234130859375,-0.004073860123753548,0.3296607732772827,0.09958875179290771
1652389093562231800,5.438231689453125,0.03746497631072998,0.26674163341522217,0.23764429986476898
1652389093572229400,5.4482294921875,0.11871005594730377,0.24169616401195526,0.39158234000205994
1652389093582227000,5.45822705078125,0.21461589634418488,0.26185470819473267,0.5717875957489014
1652389093592224500,5.468224609375,0.29158493876457214,0.32294124364852905,0.7788709402084351
1652389093602222000,5.47822216796875,0.34839537739753723,0.2801806628704071,1.0128322839736938
1652389093612219600,5.4882197265625,0.35816922783851624,0.2087094485759735,1.2529023885726929
1652389093622217200,5.49821728515625,0.31113260984420776,0.11769051849842072,1.4758681058883667
1652389093632214800,5.50821484375,0.19995513558387756,0.053549665957689285,1.6475212574005127
1652389093642212400,5.51821240234375,0.07594948261976242,-0.049075692892074585,1.7678617238998413
1652389093652210000,5.5282099609375,-0.028508471325039864,-0.20179200172424316,1.8326133489608765
1652389093662207500,5.53820751953125,-0.1604553610086441,-0.5169984698295593,1.8387219905853271
1652389093672205000,5.548205078125,-0.22215275466442108,-0.768674910068512,1.7678617238998413
1652389093682202600,5.55820263671875,-0.21421150863170624,-0.9519345164299011,1.6224758625030518
1652389093692200200,5.5682001953125,-0.1763378530740738,-1.0350122451782227,1.4086729288101196
1652389093702197800,5.57819775390625,-0.18977689743041992,-1.0533381700515747,1.167992115020752
1652389093712195300,5.5881953125,-0.2459765076637268,-1.0093557834625244,0.9951171875
1652389093722193000,5.59819287109375,-0.2869044840335846,-0.8804633021354675,0.8961570262908936
1652389093732190500,5.6081904296875,-0.2777414917945862,-0.7198057174682617,0.8558399081230164
1652389093742188000,5.61818798828125,-0.2368135154247284,-0.6025195717811584,0.853396475315094
1652389093752185300,5.628185302734375,-0.20199419558048248,-0.542654812335968,0.8350704908370972
1652389093762183000,5.638182861328125,-0.19222034513950348,-0.5261614322662354,0.7544362545013428
1652389093772180500,5.648180419921875,-0.19832901656627655,-0.5695328712463379,0.5998873710632324
1652389093782211600,5.658211669921875,-0.18366824090480804,-0.7992181777954102,0.3787541687488556
1652389093792242400,5.668242431640625,-0.1500706523656845,-1.0026363134384155,0.3170567750930786
1652389093802273300,5.678273193359375,-0.14884892106056213,-1.2030000686645508,0.33965879678726196
1652389093812304100,5.68830419921875,-0.17817045748233795,-1.3740423917770386,0.43739721179008484
1652389093822335000,5.6983349609375,-0.20382679998874664,-1.4320745468139648,0.577896237373352
1652389093832365800,5.70836572265625,-0.2264288067817688,-1.2989059686660767,0.6860194206237793
1652389093842396700,5.718396728515625,-0.21909841895103455,-1.1309181451797485,0.7116757035255432
1652389093852427800,5.728427734375,-0.2209310084581375,-0.905508816242218,0.6279872059822083
1652389093862492000,5.738491943359375,-0.20504851639270782,-0.733855664730072,0.4703839421272278
1652389093872556000,5.74855615234375,-0.16289882361888885,-0.6025195717811584,0.19915978610515594
1652389093882620400,5.758620361328125,-0.13296642899513245,-0.5481525659561157,0.06538029760122299
1652389093892684500,5.7686845703125,-0.10731008648872375,-0.5218853950500488,-0.014643050730228424
1652389093902748700,5.778748779296875,-0.06760384142398834,-0.4534684717655182,-0.03296900913119316
1652389093912812800,5.788812744140625,-0.001630399376153946,-0.4162057042121887,-0.011588724330067635
1652389093922877200,5.798877197265625,0.07839294523000717,-0.38016465306282043,-0.0036474764347076416
1652389093932941300,5.80894140625,0.20423118770122528,-0.3905493915081024,-0.015253915451467037
1652389093943005400,5.81900537109375,0.31846296787261963,-0.4021557867527008,-0.08550341427326202
1652389093953069800,5.82906982421875,0.4162014126777649,-0.45957714319229126,-0.20095695555210114
1652389093963134000,5.839134033203125,0.4913378655910492,-0.5402113795280457,-0.2980845272541046
1652389093973198000,5.849197998046875,0.5505918264389038,-0.6043521761894226,-0.3408450782299042
1652389093983262500,5.859262451171875,0.5896871089935303,-0.6471127867698669,-0.3249625861644745
1652389093993326600,5.86932666015625,0.6043478846549988,-0.6642169952392578,-0.27609339356422424
1652389094003390700,5.879390625,0.5860219597816467,-0.65566486120224,-0.22050464153289795
1652389094013455000,5.889455078125,0.47423359751701355,-0.5652568340301514,-0.14903339743614197
1652389094023519200,5.899519287109375,0.33739981055259705,-0.47484874725341797,-0.07695131003856659
1652389094033583400,5.909583251953125,0.16208148002624512,-0.40032321214675903,0.061104241758584976
1652389094043647700,5.919647705078125,0.01669555902481079,-0.3508431017398834,0.26024630665779114
1652389094053712000,5.9297119140625,-0.10853181779384613,-0.3019739091396332,0.4624427258968353
1652389094063776000,5.93977587890625,-0.21482236683368683,-0.26837632060050964,0.6231002807617188
1652389094073840000,5.949840087890625,-0.2765197455883026,-0.26898717880249023,0.7025127410888672
1652389094083871200,5.959871337890625,-0.27896323800086975,-0.31785640120506287,0.681743323802948
1652389094093902000,5.969902099609375,-0.24292217195034027,-0.43941858410835266,0.5510181784629822
1652389094103933000,5.979932861328125,-0.1708400696516037,-0.591524064540863,0.35554128885269165
1652389094113963800,5.9899638671875,-0.0694364383816719,-0.6684930324554443,0.16006441414356232
1652389094123994600,5.99999462890625,0.03257805109024048,-0.6245107650756836,0.004293771926313639
1652389094134025500,6.010025390625,0.10404928773641586,-0.47118356823921204,-0.06290140748023987
1652389094144056600,6.020056640625,0.02280420996248722,-0.2256157547235489,0.07637587189674377
1652389094154087400,6.03008740234375,-0.24475476145744324,-0.08694934099912643,0.19488373398780823
1652389094164085000,6.0400849609375,-0.5178115367889404,0.07431908696889877,0.06904548406600952
1652389094174082300,6.050082275390625,-0.5630155801773071,0.16167281568050385,-0.3048040568828583
1652389094184080000,6.060079833984375,-0.5080376863479614,0.1488446444272995,-0.7189707159996033
1652389094194077400,6.070077392578125,-0.44023165106773376,0.04377582669258118,-1.018905520439148
1652389094204075000,6.080074951171875,-0.32355639338493347,-0.10771875828504562,-1.1734545230865479
1652389094214072600,6.090072509765625,-0.22337448596954346,-0.2555481493473053,-1.1691783666610718
1652389094224070100,6.100070068359375,-0.15801189839839935,-0.30258476734161377,-1.0445618629455566
1652389094234067700,6.110067626953125,-0.10059057176113129,-0.2720414996147156,-0.856415331363678
1652389094244065300,6.120065185546875,-0.07921028882265091,-0.14620326459407806,-0.6450559496879578
1652389094254062800,6.130062744140625,-0.05355394259095192,0.053549665957689285,-0.42819881439208984
1652389094264060400,6.140060302734375,-0.016291163861751556,0.24352876842021942,-0.21928291022777557
1652389094274058000,6.15005810546875,0.0026456573978066444,0.42923179268836975,0.0800410583615303
1652389094284055600,6.1600556640625,-0.0022412645630538464,0.47504669427871704,0.2516942024230957
1652389094294053000,6.17005322265625,-0.005295590963214636,0.4622184932231903,0.35126522183418274
1652389094304050700,6.18005078125,0.022193346172571182,0.4225122630596161,0.32499802112579346
1652389094314048300,6.19004833984375,0.11687745898962021,0.3675343990325928,0.17228171229362488
1652389094324045800,6.2000458984375,0.23049840331077576,0.30278268456459045,-0.034190740436315536
1652389094334043400,6.21004345703125,0.3593909740447998,0.29667404294013977,-0.22111551463603973
1652389094344041000,6.220041015625,0.43330565094947815,0.3247738480567932,-0.3530624210834503
1652389094354038500,6.23003857421875,0.44735556840896606,0.3962450921535492,-0.44774651527404785
1652389094364036000,6.2400361328125,0.40703845024108887,0.5343006253242493,-0.5289915800094604
1652389094374033700,6.25003369140625,0.34350845217704773,0.7175601720809937,-0.582747757434845
1652389094384031200,6.26003125,0.2989153265953064,0.9179239869117737,-0.5870237946510315
1652389094394028800,6.27002880859375,0.2781458795070648,1.1042379140853882,-0.53387850522995
1652389094404026400,6.2800263671875,0.2433265745639801,1.2215240001678467,-0.44896823167800903
1652389094414024000,6.29002392578125,0.17063359916210175,1.2569541931152344,-0.3188539445400238
1652389094424021500,6.300021484375,0.13459254801273346,1.2196913957595825,-0.26082175970077515
1652389094434019000,6.31001904296875,0.11382313817739487,1.1573832035064697,-0.23516540229320526
1652389094444016600,6.3200166015625,0.10282756388187408,1.0791923999786377,-0.25654569268226624
1652389094454014200,6.33001416015625,0.09977322816848755,1.0003907680511475,-0.32618433237075806
1652389094464011500,6.340011474609375,0.10160582512617111,0.9478563666343689,-0.4459139108657837
1652389094474009000,6.350009033203125,0.11321226507425308,0.9130370616912842,-0.5949650406837463
1652389094484006700,6.360006591796875,0.12604042887687683,0.8898242115974426,-0.7507356405258179
1652389094494004200,6.370004150390625,0.1431446671485901,0.8269050717353821,-0.8820717334747314
1652389094504001800,6.380001708984375,0.1523076444864273,0.769483745098114,-0.9706471562385559
1652389094513999400,6.389999267578125,0.13886860013008118,0.6186000108718872,-1.0036338567733765
1652389094523997000,6.399996826171875,0.13031649589538574,0.5391875505447388,-0.9944708943367004
1652389094533994500,6.409994384765625,0.10954707115888596,0.385249525308609,-0.9645385146141052
1652389094543992000,6.419991943359375,0.08999939262866974,0.17205752432346344,-0.9229996800422668
1652389094553989600,6.42998974609375,0.08938851952552795,0.0675995722413063,-0.9297191500663757
1652389094563987200,6.4399873046875,0.09305371344089508,0.03216938301920891,-0.9565972089767456
1652389094573984800,6.44998486328125,0.10771447420120239,-0.05946039780974388,-1.010964274406433
1652389094583982300,6.459982421875,0.13337081670761108,-0.054573480039834976,-1.0488379001617432
1652389094593980000,6.46997998046875,0.16391408443450928,0.04621928930282593,-1.0525031089782715
1652389094603977500,6.4799775390625,0.17674225568771362,0.10058629512786865,-1.038453221321106
1652389094613975000,6.48997509765625,0.16941186785697937,0.1341838836669922,-0.9969143867492676
1652389094623972600,6.49997265625,0.15169677138328552,0.2710177004337311,-0.9278866052627563
1652389094633970200,6.50997021484375,0.10588188469409943,0.5605677962303162,-0.8142656683921814
1652389094643967700,6.5199677734375,0.025247670710086823,0.597219705581665,-0.714694619178772
1652389094653965300,6.52996533203125,-0.040114909410476685,0.788420557975769,-0.6016845703125
1652389094663963000,6.539962890625,-0.1347990334033966,0.8232398629188538,-0.48867446184158325
1652389094673960400,6.54996044921875,-0.1610662192106247,0.7749814987182617,-0.44347044825553894
1652389094683958000,6.5599580078125,-0.15862277150154114,0.7902531623840332,-0.3903251588344574
1652389094693955600,6.56995556640625,-0.1561793088912964,0.7945292592048645,-0.3506189286708832
1652389094703953200,6.579953125,-0.08837325870990753,0.7138950228691101,-0.29197585582733154
1652389094713950700,6.58995068359375,-0.022399818524718285,0.5239158868789673,-0.23088935017585754
1652389094723948300,6.5999482421875,0.017917288467288017,0.41396018862724304,-0.14964427053928375
1652389094733979100,6.609979248046875,0.033188920468091965,0.3510410487651825,-0.026860354468226433
1652389094744010000,6.620010009765625,0.06556478142738342,0.2887327969074249,0.13135375082492828
1652389094754040800,6.630040771484375,0.13886860013008118,0.22581367194652557,0.29995253682136536
1652389094764071700,6.64007177734375,0.22988753020763397,0.2087094485759735,0.46610790491104126
1652389094774102500,6.6501025390625,0.3196847140789032,0.22581367194652557,0.6359283924102783
1652389094784133600,6.660133544921875,0.41314709186553955,0.2245919406414032,0.9034874439239502
1652389094794164500,6.67016455078125,0.4064275920391083,0.18732915818691254,1.0849144458770752
1652389094804195300,6.6801953125,0.3392324149608612,0.11585792899131775,1.2577892541885376
1652389094814226200,6.69022607421875,0.20972897112369537,0.11524706333875656,1.4062294960021973
1652389094824257000,6.700257080078125,0.05518006905913353,0.11952311545610428,1.519850492477417
1652389094834287900,6.710287841796875,-0.08592980355024338,0.07004302740097046,1.5943759679794312
1652389094844319000,6.720319091796875,-0.2013833373785019,-0.04968655854463577,1.6334714889526367
1652389094854349800,6.730349853515625,-0.28446099162101746,-0.23294614255428314,1.651186466217041
1652389094864380700,6.740380615234375,-0.3321084976196289,-0.40521013736724854,1.6377474069595337
1652389094874411500,6.75041162109375,-0.32966503500938416,-0.5310484170913696,1.5717740058898926
1652389094884442400,6.7604423828125,-0.2807958126068115,-0.5817501544952393,1.451433539390564
1652389094894473200,6.77047314453125,-0.21360065042972565,-0.5261614322662354,1.1899831295013428
1652389094904504000,6.780504150390625,-0.20749199390411377,-0.5115006566047668,1.1062946319580078
1652389094914535000,6.790534912109375,-0.16167709231376648,-0.46568578481674194,1.0000041723251343
1652389094924565800,6.800565673828125,-0.09081672877073288,-0.3978797495365143,1.031158208847046
1652389094934596900,6.810596923828125,-0.05233221501111984,-0.35450831055641174,1.0464298725128174
1652389094944627500,6.82062744140625,-0.06332778930664062,-0.43392080068588257,0.9517458081245422
1652389094954658600,6.830658447265625,-0.08409720659255981,-0.5768632888793945,0.730612576007843
1652389094964689400,6.840689453125,-0.09814710915088654,-0.7191948890686035,0.4575558006763458
1652389094974720300,6.85072021484375,-0.11097528040409088,-0.8890153765678406,0.24558554589748383
1652389094984751000,6.860751220703125,-0.12746864557266235,-1.0698314905166626,0.1655621975660324
1652389094994782000,6.870781982421875,-0.16961835324764252,-1.2127739191055298,0.18755334615707397
1652389095004846300,6.880846435546875,-0.23864611983299255,-1.3105124235153198,0.30606117844581604
1652389095014943700,6.89094384765625,-0.3119499385356903,-1.2793582677841187,0.6023308634757996
1652389095025041200,6.901041259765625,-0.3272216022014618,-1.1718460321426392,0.7623775601387024
1652389095035105500,6.91110546875,-0.3321084976196289,-1.058225154876709,0.7978077530860901
1652389095045169700,6.921169677734375,-0.30584126710891724,-0.9446040987968445,0.7135083079338074
1652389095055233800,6.93123388671875,-0.2630807161331177,-0.8511418104171753,0.5552942752838135
1652389095065298200,6.941298095703125,-0.2105463147163391,-0.7931095361709595,0.37020206451416016
1652389095075362300,6.9513623046875,-0.15190324187278748,-0.7399643063545227,0.2113770842552185
1652389095085426400,6.961426513671875,-0.10547749698162079,-0.6923167705535889,0.10630826652050018
1652389095095524000,6.971524169921875,-0.06699298322200775,-0.5976327061653137,0.05133039504289627
1652389095105621800,6.981621826171875,-0.008349917829036713,-0.44980329275131226,0.04827607050538063
1652389095115719200,6.99171923828125,0.06495390832424164,-0.3874950110912323,0.08431711792945862
1652389095125816800,7.00181689453125,0.15352937579154968,-0.3514539897441864,0.105697400867939
1652389095135914200,7.011914306640625,0.24699175357818604,-0.371612548828125,0.09286922961473465
1652389095146011600,7.02201171875,0.31724128127098083,-0.43941858410835266,0.06232596933841705
1652389095156109300,7.032109375,0.3709973990917206,-0.5359352827072144,0.03666962683200836
1652389095166206700,7.042206787109375,0.4198666214942932,-0.617180347442627,0.032393574714660645
1652389095176304400,7.052304443359375,0.46323803067207336,-0.6629952192306519,0.04644347354769707
1652389095186401800,7.06240185546875,0.4974465072154999,-0.675212562084198,0.06354770064353943
1652389095196499500,7.07249951171875,0.5047768950462341,-0.6532214283943176,0.07271067798137665
1652389095206596900,7.082596923828125,0.4711792767047882,-0.626343309879303,0.06354770064353943
1652389095216694500,7.092694580078125,0.3948211371898651,-0.6019087433815002,0.04888693615794182
1652389095226758700,7.102758544921875,0.27631330490112305,-0.5707546472549438,0.04522174596786499
1652389095236822800,7.11282275390625,0.16147062182426453,-0.5481525659561157,0.07271067798137665
1652389095246887200,7.12288720703125,0.06006699055433273,-0.5512068867683411,0.14845795929431915
1652389095256951300,7.132951416015625,-0.04133664071559906,-0.5683111548423767,0.2419203519821167
1652389095267015400,7.143015380859375,-0.1604553610086441,-0.5829719305038452,0.33110669255256653
1652389095277079800,7.153079833984375,-0.20993545651435852,-0.5970218181610107,0.3482109010219574
1652389095287144000,7.16314404296875,-0.21298977732658386,-0.6232889890670776,0.32560887932777405
1652389095297208000,7.1732080078125,-0.15434670448303223,-0.6519997119903564,0.25963544845581055
1652389095307239000,7.183239013671875,-0.060273464769124985,-0.6813212037086487,0.16922739148139954
1652389095317236500,7.193236572265625,0.0313563235104084,-0.6990363001823425,0.08676058053970337
1652389095327234000,7.203234130859375,0.10343842208385468,-0.6672713160514832,0.015289346687495708
1652389095337231600,7.213231689453125,0.13459254801273346,-0.5548721551895142,-0.023806029930710793
1652389095347229200,7.223229248046875,0.10954707115888596,-0.36977994441986084,0.004904636647552252
1652389095357226800,7.233226806640625,-0.022399818524718285,-0.17918998003005981,0.08676058053970337
1652389095367224300,7.243224365234375,-0.25391775369644165,-0.046021364629268646,0.09286922961473465
1652389095377222000,7.253221923828125,-0.43473386764526367,0.04377582669258118,-0.09588813036680222
1652389095387219500,7.263219482421875,-0.48238134384155273,0.0877581238746643,-0.4141489267349243
1652389095397183700,7.273183837890625,-0.3974710702896118,0.06332351267337799,-0.8307590484619141
1652389095407147800,7.283147705078125,-0.3333302438259125,0.012621697038412094,-0.9682036638259888
1652389095417112000,7.293112060546875,-0.2655242085456848,-0.055184345692396164,-0.9816427826881409
1652389095427076400,7.303076416015625,-0.1867225617170334,-0.07045597583055496,-0.9010085463523865
1652389095437040600,7.31304052734375,-0.10853181779384613,-0.04663223400712013,-0.7708942294120789
1652389095447005000,7.3230048828125,-0.06638211756944656,0.021173810586333275,-0.6267300248146057
1652389095456969000,7.332968994140625,-0.046223558485507965,0.1335730105638504,-0.47767889499664307
1652389095466933200,7.342933349609375,-0.031562793999910355,0.2600221335887909,-0.3237408697605133
1652389095476897500,7.3528974609375,-0.01812376081943512,0.41396018862724304,-0.17957666516304016
1652389095486861800,7.36286181640625,-0.014458569698035717,0.5569026470184326,-0.061068810522556305
1652389095496826000,7.372826171875,0.007532579358667135,0.636315107345581,0.007348097860813141
1652389095506790100,7.3827900390625,0.05579093471169472,0.6540302038192749,0.0006285803392529488
1652389095516754400,7.39275439453125,0.1126013994216919,0.6473106741905212,-0.10321851074695587
1652389095526752000,7.402751953125,0.18529437482357025,0.6448672413825989,-0.29197585582733154
1652389095536749600,7.41274951171875,0.27020463347435,0.6528084874153137,-0.582747757434845
1652389095546747100,7.4227470703125,0.2976935803890228,0.6998450756072998,-0.7098076939582825
1652389095556744700,7.43274462890625,0.3099108934402466,0.779257595539093,-0.7806680798530579
1652389095566742300,7.4427421875,0.31113260984420776,0.8879915475845337,-0.8173199892044067
1652389095576739800,7.45273974609375,0.3001370131969452,1.033988356590271,-0.8222069144248962
1652389095586737400,7.4627373046875,0.30135875940322876,1.1842612028121948,-0.7800571918487549
1652389095596735000,7.47273486328125,0.3202956020832062,1.2893301248550415,-0.6914817690849304
1652389095606732500,7.482732666015625,0.3257933557033539,1.3168189525604248,-0.5833585858345032
1652389095616730000,7.492730224609375,0.32090646028518677,1.2777236700057983,-0.4758463203907013
1652389095626727700,7.502727783203125,0.31601953506469727,1.1952568292617798,-0.38299477100372314
1652389095636725200,7.512725341796875,0.31174346804618835,1.10362708568573,-0.3041931688785553
1652389095646722800,7.522722900390625,0.30624568462371826,0.9979473352432251,-0.24127405881881714
1652389095656720400,7.532720458984375,0.2903631925582886,0.8916568160057068,-0.2027895450592041
1652389095666718000,7.542718017578125,0.2579873204231262,0.7413839101791382,-0.24616098403930664
1652389095676715500,7.552715576171875,0.2384396344423294,0.6906821131706238,-0.3707774877548218
1652389095686713000,7.562713134765625,0.22438974678516388,0.6546410322189331,-0.5583131313323975
1652389095696710700,7.572710693359375,0.21583762764930725,0.6240977644920349,-0.7617312669754028
1652389095706708200,7.582708251953125,0.20667465031147003,0.6240977644920349,-0.9364387392997742
1652389095716705800,7.592705810546875,0.18224003911018372,0.5843915343284607,-1.0494487285614014
1652389095726703400,7.602703369140625,0.1571945697069168,0.5703416466712952,-1.073272466659546
1652389095736701000,7.612700927734375,0.12848390638828278,0.5037573575973511,-1.0292903184890747
1652389095746698200,7.6226982421875,0.11565572768449783,0.4359513223171234,-0.9523212313652039
1652389095756695800,7.63269580078125,0.10832534730434418,0.3351585268974304,-0.8680217862129211
1652389095766693400,7.642693359375,0.10832534730434418,0.2642982006072998,-0.8118221759796143
1652389095776691000,7.65269091796875,0.12420783936977386,0.14579030871391296,-0.791663646697998
1652389095786688500,7.6626884765625,0.1272621750831604,0.032780252397060394,-0.8203743100166321
1652389095796686000,7.67268603515625,0.12542957067489624,0.05965832248330116,-0.86680006980896
1652389095806683600,7.68268359375,0.11626659333705902,0.09997542202472687,-0.8674109578132629
1652389095816681200,7.69268115234375,0.08450160175561905,0.12135571241378784,-0.856415331363678
1652389095826678800,7.7026787109375,0.03379978612065315,0.2349766492843628,-0.8075461387634277
1652389095836676400,7.71267626953125,-0.02973019890487194,0.3565388321876526,-0.724468469619751
1652389095846674000,7.722673828125,-0.09875797480344772,0.5263593792915344,-0.6279518008232117
1652389095856671500,7.73267138671875,-0.17206180095672607,0.6344825625419617,-0.5271589756011963
1652389095866669000,7.7426689453125,-0.23009400069713593,0.7536012530326843,-0.43797266483306885
1652389095876666600,7.75266650390625,-0.25025254487991333,0.7175601720809937,-0.3744426965713501
1652389095886664200,7.762664306640625,-0.24780909717082977,0.7267231345176697,-0.34267768263816833
1652389095896661800,7.772661865234375,-0.21970929205417633,0.7939183115959167,-0.3286277651786804
1652389095906659300,7.782659423828125,-0.14151853322982788,0.6399802565574646,-0.33290383219718933
1652389095916657000,7.792656982421875,-0.08104288578033447,0.5477396249771118,-0.32251912355422974
1652389095926654500,7.802654541015625,0.011197770945727825,0.48359882831573486,-0.2724281847476959
1652389095936652000,7.812652099609375,0.08327987045049667,0.3705887496471405,-0.1013859212398529
1652389095946649600,7.822649658203125,0.15536196529865265,0.2447504848241806,0.10264307260513306
1652389095956647200,7.832647216796875,0.24454829096794128,0.12990781664848328,0.34943264722824097
1652389095966644700,7.842644775390625,0.35694751143455505,0.029725925996899605,0.6176024675369263
1652389095976642000,7.85264208984375,0.47423359751701355,-0.016699835658073425,0.8955461382865906
1652389095986639600,7.8626396484375,0.5395961999893188,-0.08878193795681,1.1661593914031982
1652389095996637200,7.87263720703125,0.5286006331443787,-0.17552480101585388,1.4050078392028809
1652389096006634800,7.882634765625,0.46445977687835693,-0.23233526945114136,1.5968194007873535
1652389096016632300,7.89263232421875,0.3404541313648224,-0.21400931477546692,1.7220468521118164
1652389096026630000,7.9026298828125,0.18407262861728668,-0.15292279422283173,1.7819116115570068
1652389096036627500,7.91262744140625,0.035632383078336716,-0.08511674404144287,1.7965724468231201
1652389096046625000,7.922625,-0.14212940633296967,-0.12543384730815887,1.7745813131332397
1652389096056622600,7.93262255859375,-0.1867225617170334,-0.18590949475765228,1.7623639106750488
1652389096066620200,7.9426201171875,-0.2618589997291565,-0.43514251708984375,1.6640146970748901
1652389096076617700,7.95261767578125,-0.2526960074901581,-0.5738089680671692,1.518628716468811
1652389096086615300,7.962615234375,-0.21909841895103455,-0.6434475779533386,1.313378095626831
1652389096096612900,7.97261279296875,-0.1964964121580124,-0.6636061668395996,1.0678101778030396
1652389096106610400,7.9826103515625,-0.1909986287355423,-0.7069775462150574,0.8876048922538757
1652389096116608000,7.99260791015625,-0.16961835324764252,-0.7118645310401917,0.8356813788414001
1652389096126605600,8.00260546875,-0.14640545845031738,-0.6397824287414551,0.8937135338783264
1652389096136603100,8.01260302734375,-0.1256360411643982,-0.4675183594226837,0.9712934494018555
1652389096146600700,8.0226005859375,-0.15679018199443817,-0.3771103322505951,0.9370850324630737
1652389096156598300,8.032598388671875,-0.20504851639270782,-0.4485815763473511,0.739775538444519
1652389096166595800,8.042595947265625,-0.21482236683368683,-0.5609807968139648,0.4282342493534088
1652389096176593400,8.052593505859376,-0.1867225617170334,-0.6782668828964233,0.1203581690788269
1652389096186591000,8.062591064453125,-0.1604553610086441,-0.8615264892578125,-0.07023178786039352
1652389096196588500,8.072588623046874,-0.19283121824264526,-1.0631119012832642,-0.014643050730228424
1652389096206586000,8.082586181640625,-0.2624698579311371,-1.0185188055038452,0.19549459218978882
1652389096216583700,8.092583740234375,-0.3272216022014618,-0.8945131897926331,0.4948185682296753
1652389096226581200,8.102581298828126,-0.3620409071445465,-0.7301904559135437,0.7544362545013428
1652389096236578600,8.11257861328125,-0.3736473321914673,-0.5780850052833557,0.8705006837844849
1652389096246576000,8.122576171875,-0.3767016530036926,-0.4223143756389618,0.8295726776123047
1652389096256573700,8.13257373046875,-0.3424932062625885,-0.3453453481197357,0.6670826077461243
1652389096266571300,8.1425712890625,-0.28018492460250854,-0.3410692811012268,0.4447275996208191
1652389096276602000,8.15260205078125,-0.2056593894958496,-0.3868841826915741,0.22909218072891235
1652389096286633000,8.162633056640624,-0.09814710915088654,-0.4632423520088196,0.003072041319683194
1652389096296664000,8.1726640625,-0.064549520611763,-0.45957714319229126,-0.03724506497383118
1652389096306695000,8.18269482421875,0.026469402015209198,-0.4113187789916992,-0.0561818890273571
1652389096316725800,8.192725830078125,0.1071036159992218,-0.3819972574710846,0.00673723267391324
1652389096326756600,8.202756591796875,0.1926247626543045,-0.2744849622249603,0.06660202890634537
1652389096336787500,8.212787353515624,0.2647068500518799,-0.22744834423065186,0.10142134875059128
1652389096346818300,8.222818359375,0.31663039326667786,-0.22744834423065186,0.08065192401409149
1652389096356849200,8.23284912109375,0.35206058621406555,-0.28364795446395874,0.012845885008573532
1652389096366880300,8.24288037109375,0.37710604071617126,-0.37039080262184143,-0.058625347912311554
1652389096376911000,8.2529111328125,0.3966537415981293,-0.4534684717655182,-0.097109854221344
1652389096386942000,8.26294189453125,0.4003189504146576,-0.5176092982292175,-0.09222293645143509
1652389096396972800,8.272972900390625,0.38260385394096375,-0.5463200211524963,-0.05679275095462799
1652389096407003600,8.283003662109374,0.3343454897403717,-0.5310484170913696,-0.004258341621607542
1652389096417034500,8.293034423828125,0.25615471601486206,-0.4840117394924164,0.04583260789513588
1652389096427065300,8.3030654296875,0.1730770617723465,-0.44491636753082275,0.08859317749738693
1652389096437096400,8.313096435546875,0.061899587512016296,-0.43514251708984375,0.16189700365066528
1652389096447127300,8.323127197265626,-0.006517321337014437,-0.4375860095024109,0.2009923905134201
1652389096457158100,8.333158203125,-0.0596625991165638,-0.4436946511268616,0.226037859916687
1652389096467189000,8.34318896484375,-0.08776240050792694,-0.45407935976982117,0.23947690427303314
1652389096477219800,8.3532197265625,-0.08715153485536575,-0.4736270308494568,0.23581171035766602
1652389096487250700,8.363250732421875,-0.057219136506319046,-0.5121115446090698,0.19366200268268585
1652389096497315000,8.373315185546875,-0.007128186523914337,-0.5609807968139648,0.11424952000379562
1652389096507379200,8.383379150390626,0.0667865052819252,-0.5933566093444824,0.01590021140873432
1652389096517443300,8.393443359375,0.15414024889469147,-0.6000761985778809,-0.07939476519823074
1652389096527507700,8.4035078125,0.2500460743904114,-0.5780850052833557,-0.18690703809261322
1652389096537571800,8.41357177734375,0.26043078303337097,-0.5548721551895142,-0.2076764702796936
1652389096547636000,8.423635986328126,0.1736879199743271,-0.3526757061481476,-0.17102454602718353
1652389096557700400,8.433700439453125,-0.06638211756944656,-0.17857912182807922,-0.05923621356487274
1652389096567764500,8.443764404296875,-0.42618173360824585,-0.005093394313007593,-0.017086511477828026
1652389096577795300,8.45379541015625,-0.6363193988800049,0.1543424427509308,-0.18446359038352966
1652389096587826200,8.463826171875,-0.6833560466766357,0.25696781277656555,-0.4666833281517029
1652389096597857000,8.47385693359375,-0.6515910029411316,0.2655198872089386,-0.704920768737793
1652389096607888100,8.48388818359375,-0.5727894306182861,0.1592293530702591,-0.8368676900863647
1652389096617919000,8.4939189453125,-0.48665741086006165,-0.031360600143671036,-0.8576371073722839
1652389096627949800,8.50394970703125,-0.40113624930381775,-0.1749139279127121,-0.7886093258857727
1652389096637980700,8.513980712890625,-0.2960674464702606,-0.23966564238071442,-0.6774318218231201
1652389096648011500,8.524011474609376,-0.20199419558048248,-0.20118114352226257,-0.5619783401489258
1652389096658042400,8.53404248046875,-0.13418816030025482,-0.08267328143119812,-0.4343074560165405
1652389096668073200,8.5440732421875,-0.07187990844249725,0.059047453105449677,-0.27181732654571533
1652389096678104300,8.554104248046874,0.022193346172571182,0.2539134621620178,-0.02441689558327198
1652389096688135200,8.56413525390625,0.06434305012226105,0.38341689109802246,0.11913643777370453
1652389096698166000,8.574166015625,0.1119905412197113,0.4524446725845337,0.2022141069173813
1652389096708196900,8.58419677734375,0.1730770617723465,0.4426708519458771,0.1814446896314621
1652389096718227700,8.594227783203126,0.2750915586948395,0.4322861433029175,0.029950112104415894
1652389096728258600,8.604258544921874,0.3593909740447998,0.4353404641151428,-0.20584386587142944
1652389096738289400,8.614289306640625,0.4210883378982544,0.4585533142089844,-0.46423986554145813
1652389096748320500,8.624320556640624,0.43880343437194824,0.4915400445461273,-0.6591058969497681
1652389096758351400,8.634351318359375,0.4039841294288635,0.5672873258590698,-0.7556226253509521
1652389096768382200,8.64438232421875,0.3447301983833313,0.6784648299217224,-0.7702834010124207
1652389096778413000,8.6544130859375,0.28608712553977966,0.8287376761436462,-0.7256901860237122
1652389096788444000,8.66444384765625,0.23233099281787872,1.0681968927383423,-0.5748064517974854
1652389096798441500,8.67444140625,0.21950282156467438,1.130505084991455,-0.5131090879440308
1652389096808439000,8.68443896484375,0.20117686688899994,1.2117501497268677,-0.4000990390777588
1652389096818436600,8.6944365234375,0.18895956873893738,1.2227457761764526,-0.29136502742767334
1652389096828434200,8.70443408203125,0.17979659140110016,1.17631995677948,-0.2577674388885498
1652389096838431700,8.714431640625,0.18224003911018372,1.1146225929260254,-0.24005232751369476
1652389096848429300,8.72442919921875,0.18162918090820312,1.016884207725525,-0.22233723104000092
1652389096858427000,8.734427001953126,0.18529437482357025,0.892267644405365,-0.21378512680530548
1652389096868424200,8.744424072265625,0.18101830780506134,0.7719271779060364,-0.2486044466495514
1652389096878421800,8.754421875,0.18162918090820312,0.6473106741905212,-0.35672760009765625
1652389096888419300,8.76441943359375,0.1877378225326538,0.530635416507721,-0.5283807516098022
1652389096898417000,8.7744169921875,0.18529437482357025,0.45916417241096497,-0.7293553948402405
1652389096908414500,8.78441455078125,0.1724662035703659,0.4005211293697357,-0.9071171879768372
1652389096918412000,8.794412109375,0.12604042887687683,0.3149999976158142,-1.041507601737976
1652389096928409600,8.80440966796875,0.10771447420120239,0.29239797592163086,-1.0445618629455566
1652389096938407200,8.8144072265625,0.07472775131464005,0.25818949937820435,-1.0134077072143555
1652389096948404700,8.82440478515625,0.050904009491205215,0.25146999955177307,-0.9132258296012878
1652389096958402300,8.83440234375,0.03990843519568443,0.20076818764209747,-0.8582479357719421
1652389096968400000,8.84439990234375,0.03990843519568443,0.1696140617132187,-0.8460306525230408
1652389096978397400,8.8543974609375,0.044795360416173935,0.17755530774593353,-0.8625239729881287
1652389096988395000,8.86439501953125,0.04296276345849037,0.14395771920681,-0.8881803750991821
1652389096998392600,8.874392578125,0.03807583823800087,0.20015732944011688,-0.885736882686615
1652389097008390100,8.88439013671875,0.024025941267609596,0.35776054859161377,-0.8509175181388855
1652389097018387700,8.8943876953125,-0.025454143062233925,0.4927617907524109,-0.7928853631019592
1652389097028385300,8.90438525390625,-0.06821471452713013,0.5764502882957458,-0.7018664479255676
1652389097038382800,8.9143828125,-0.12074912339448929,0.7138950228691101,-0.6120692491531372
1652389097048380400,8.92438037109375,-0.16289882361888885,0.8067465424537659,-0.5357111096382141
1652389097058378000,8.9343779296875,-0.20810285210609436,0.9600736498832703,-0.5015026330947876
1652389097068375600,8.94437548828125,-0.23009400069713593,0.8476744890213013,-0.5063895583152771
1652389097078373000,8.954373046875,-0.1952746957540512,0.7554338574409485,-0.533267617225647
1652389097088370700,8.96437060546875,-0.1500706523656845,0.7670403122901917,-0.53387850522995
1652389097098368300,8.9743681640625,-0.07921028882265091,0.6900712251663208,-0.5106655955314636
1652389097108365800,8.98436572265625,0.00020219638827256858,0.5135312080383301,-0.46729418635368347
1652389097118363100,8.994363037109375,0.05701266601681709,0.49520522356033325,-0.3848274052143097
1652389097128360700,9.004360595703124,0.07228429615497589,0.48909658193588257,-0.25532394647598267
1652389097138358300,9.014358154296875,0.06922997534275055,0.4823770821094513,-0.06534486263990402
1652389097148355800,9.02435595703125,0.0918319821357727,0.4182361960411072,0.16189700365066528
1652389097158353400,9.034353515625,0.13947947323322296,0.34371066093444824,0.40074533224105835
1652389097168351000,9.04435107421875,0.20239858329296112,0.284456729888916,0.6573086977005005
1652389097178348500,9.0543486328125,0.27631330490112305,0.22703540325164795,0.9407501816749573
1652389097188346000,9.06434619140625,0.3398432731628418,0.18732915818691254,1.2388523817062378
1652389097198343700,9.07434375,0.37710604071617126,0.1543424427509308,1.5143526792526245
1652389097208341200,9.08434130859375,0.3862690329551697,0.09142331779003143,1.748924970626831
1652389097218338800,9.0943388671875,0.31601953506469727,-0.03258232772350311,1.9608951807022095
1652389097228336400,9.10433642578125,0.22133542597293854,-0.11443827301263809,1.994492769241333
1652389097238334000,9.114333984375,0.12542957067489624,-0.24210911989212036,1.974945068359375
1652389097248331500,9.12433154296875,0.06434305012226105,-0.39971235394477844,1.9169127941131592
1652389097258329000,9.1343291015625,0.05579093471169472,-0.5609807968139648,1.79351806640625
1652389097268326700,9.14432666015625,0.08877765387296677,-0.6770451664924622,1.5992629528045654
1652389097278324200,9.15432421875,0.10771447420120239,-0.6972037553787231,1.3475863933563232
1652389097288321800,9.16432177734375,0.08450160175561905,-0.656275749206543,1.0641449689865112
1652389097298319400,9.1743193359375,0.036243245005607605,-0.6190129518508911,0.8515638709068298
1652389097308317000,9.18431689453125,-0.024843279272317886,-0.5829719305038452,0.7727622389793396
1652389097318314500,9.194314453125,-0.08959499001502991,-0.5127224326133728,0.7990294694900513
1652389097328312000,9.20431201171875,-0.12197085469961166,-0.41437309980392456,0.834459662437439
1652389097338343000,9.214343017578125,-0.16167709231376648,-0.42048174142837524,0.701291024684906
1652389097348373800,9.224373779296876,-0.16656401753425598,-0.5585373044013977,0.48687732219696045
1652389097358404600,9.234404541015625,-0.14457285404205322,-0.7424077391624451,0.26024630665779114
1652389097368435500,9.244435546875,-0.1152513325214386,-0.9775908589363098,0.1301320195198059
1652389097378466600,9.254466552734375,-0.11158614605665207,-1.1333614587783813,0.1105843260884285
1652389097388497400,9.264497314453125,-0.15801189839839935,-1.1834523677825928,0.1655621975660324
1652389097398528300,9.2745283203125,-0.2264288067817688,-1.1596286296844482,0.3030068576335907
1652389097408559000,9.28455908203125,-0.27407628297805786,-0.9830886125564575,0.4893207848072052
1652389097418590000,9.29458984375,-0.3131716549396515,-0.7118645310401917,0.6560869812965393
1652389097428620800,9.304620849609375,-0.3528779149055481,-0.3905493915081024,0.7330560088157654
1652389097438651600,9.314651611328125,-0.3559322655200958,-0.3215216100215912,0.7122865915298462
1652389097448682800,9.324682861328125,-0.30889561772346497,-0.23844392597675323,0.5534616112709045
1652389097458713600,9.334713623046875,-0.2417004406452179,-0.2958652675151825,0.40685397386550903
1652389097468744400,9.344744384765624,-0.15190324187278748,-0.42048174142837524,0.2516942024230957
1652389097478775300,9.354775390625,-0.043169233947992325,-0.5567046999931335,0.11608211696147919
1652389097488806100,9.36480615234375,0.0716734305024147,-0.6636061668395996,0.03117184340953827
1652389097498837000,9.3748369140625,0.19690079987049103,-0.7772270441055298,-0.0005931501509621739
1652389097508867800,9.384867919921875,0.30624568462371826,-0.7130862474441528,-0.0018148806411772966
1652389097518899000,9.39489892578125,0.3966537415981293,-0.571365475654602,0.01040242426097393
1652389097528929800,9.4049296875,0.47789880633354187,-0.4681292474269867,-0.014643050730228424
1652389097538960600,9.414960693359374,0.5463157296180725,-0.41376224160194397,-0.0818382278084755
1652389097548991500,9.424991455078125,0.5841894149780273,-0.40398839116096497,-0.18690703809261322
1652389097559022300,9.435022216796876,0.6220629811286926,-0.46935099363327026,-0.30724748969078064
1652389097569053200,9.44505322265625,0.6208413243293762,-0.4840117394924164,-0.3206865191459656
1652389097579084300,9.455084228515625,0.5884654521942139,-0.4876769483089447,-0.3078583776950836
1652389097589115100,9.465115234375,0.4449121057987213,-0.4113187789916992,-0.1832418590784073
1652389097599146000,9.47514599609375,0.29647183418273926,-0.3312954306602478,-0.031747277826070786
1652389097609176800,9.4851767578125,0.127873033285141,-0.2549372911453247,0.13685153424739838
1652389097619207700,9.495207763671875,-0.017512895166873932,-0.20423546433448792,0.27307450771331787
1652389097629238500,9.505238525390626,-0.1347990334033966,-0.18590949475765228,0.35126522183418274
1652389097639236000,9.515236083984375,-0.23070485889911652,-0.20423546433448792,0.37692156434059143
1652389097649233700,9.525233642578126,-0.2759089171886444,-0.261656790971756,0.3622607886791229
1652389097659231200,9.535231201171875,-0.26369160413742065,-0.33923670649528503,0.30422860383987427
1652389097669228800,9.545228759765624,-0.20871371030807495,-0.44064033031463623,0.20343583822250366
1652389097679226400,9.555226318359376,-0.12380345165729523,-0.5554829835891724,0.08065192401409149
1652389097689224000,9.565223876953125,-0.02362154796719551,-0.6605518460273743,-0.02808208577334881
1652389097699221500,9.575221435546876,0.07839294523000717,-0.7185840010643005,-0.10749457031488419
1652389097709219000,9.585218994140625,0.1474207192659378,-0.7063667178153992,-0.15392033755779266
1652389097719216600,9.595216552734374,0.11932092159986496,-0.4638531804084778,-0.13559438288211823
1652389097729214000,9.6052138671875,-0.043169233947992325,-0.21767449378967285,-0.017086511477828026
1652389097739211500,9.61521142578125,-0.3308867812156677,-0.0026499333325773478,0.0953126922249794
1652389097749209000,9.625208984375,-0.5654590725898743,0.11891224980354309,-0.006701802834868431
1652389097759206700,9.63520654296875,-0.6015000343322754,0.12379917502403259,-0.34206682443618774
1652389097769204200,9.645204345703124,-0.5349157452583313,0.08103860169649124,-0.695146918296814
1652389097779201800,9.655201904296876,-0.4555032551288605,-0.011812912300229073,-0.9083389043807983
1652389097789199400,9.665199462890625,-0.3779233992099762,-0.1901855617761612,-0.9663711190223694
1652389097799197000,9.675197021484376,-0.30400869250297546,-0.30747169256210327,-0.9120041131973267
1652389097809194500,9.685194580078125,-0.21360065042972565,-0.290978342294693,-0.791663646697998
1652389097819192000,9.695192138671874,-0.13663162291049957,-0.15536624193191528,-0.6407799124717712
1652389097829189600,9.705189697265626,-0.07737769186496735,0.055993128567934036,-0.472181111574173
1652389097839187200,9.715187255859375,-0.006517321337014437,0.3259955644607544,-0.20950905978679657
1652389097849184800,9.725184814453126,0.0050891186110675335,0.3968559205532074,-0.13009658455848694
1652389097859182300,9.735182373046875,0.038686707615852356,0.5727851390838623,0.06721288710832596
1652389097869180000,9.745179931640624,0.08266900479793549,0.6326498985290527,0.135629802942276
1652389097879177500,9.755177490234376,0.1474207192659378,0.6503649950027466,0.11363864690065384
1652389097889175000,9.765175048828125,0.19934426248073578,0.6405912041664124,-0.010977859608829021
1652389097899172600,9.775172607421876,0.2647068500518799,0.6888495683670044,-0.2125633805990219
1652389097909170200,9.785170166015625,0.3398432731628418,0.7627642154693604,-0.4312531352043152
1652389097919167700,9.795167724609374,0.37282997369766235,0.8605026602745056,-0.6132910251617432
1652389097929165300,9.805165283203126,0.3502280116081238,0.979621410369873,-0.7263010740280151
1652389097939163000,9.815162841796875,0.2934175133705139,1.1085139513015747,-0.7647855877876282
1652389097949160400,9.825160400390626,0.2579873204231262,1.2331304550170898,-0.7452378273010254
1652389097959158000,9.835157958984375,0.2537112832069397,1.3449188470840454,-0.695146918296814
1652389097969155600,9.845155517578124,0.25737646222114563,1.417611837387085,-0.6328386664390564
1652389097979153200,9.855153076171876,0.2549329996109009,1.434715986251831,-0.5711413025856018
1652389097989150700,9.865150634765625,0.21461589634418488,1.370575189590454,-0.4966157078742981
1652389097999181600,9.875181640625,0.17918571829795837,1.300325632095337,-0.4465247690677643
1652389098009212400,9.88521240234375,0.16024889051914215,1.2276326417922974,-0.39826640486717224
1652389098019243300,9.8952431640625,0.15047505497932434,1.1744874715805054,-0.3555058538913727
1652389098029274000,9.905274169921874,0.1327599436044693,1.1152335405349731,-0.339623361825943
1652389098039305000,9.915304931640625,0.10466015338897705,1.0370427370071411,-0.3744426965713501
1652389098049336000,9.925336181640626,0.06984083354473114,0.9814539551734924,-0.48806363344192505
1652389098059367000,9.935366943359375,0.03807583823800087,0.9319738745689392,-0.6737666726112366
1652389098069397800,9.945397705078125,0.013641231693327427,0.8641678690910339,-0.8918455243110657
1652389098079428600,9.9554287109375,-0.005295590963214636,0.788420557975769,-1.0940419435501099
1652389098089459500,9.96545947265625,-0.030951930209994316,0.6802974343299866,-1.2754688262939453
1652389098099490300,9.975490234375,-0.027286740019917488,0.6131022572517395,-1.2852427959442139
1652389098109521200,9.985521240234375,-0.005906456150114536,0.5697307586669922,-1.2235454320907593
1652389098119552000,9.995552001953126,0.024636806920170784,0.5062007904052734,-1.1105352640151978
1652389098129582800,10.005582763671875,0.05212574452161789,0.48054447770118713,-1.0054664611816406
1652389098139614000,10.015614013671875,0.07350602746009827,0.42862093448638916,-0.9474342465400696
1652389098149644800,10.025644775390624,0.1071036159992218,0.3919690251350403,-0.9187236428260803
1652389098159675600,10.035675537109375,0.13825774192810059,0.355927973985672,-0.915058434009552
1652389098169706500,10.04570654296875,0.1675792634487152,0.35837143659591675,-0.895510733127594
1652389098179737300,10.0557373046875,0.16513581573963165,0.36386919021606445,-0.8637457489967346
1652389098189735000,10.06573486328125,0.13337081670761108,0.407240629196167,-0.7959396839141846
1652389098199732500,10.075732421875,0.07411689311265945,0.4933726489543915,-0.7024772763252258
1652389098209730000,10.08572998046875,-0.0034629949368536472,0.6448672413825989,-0.5955759286880493
1652389098219727600,10.0957275390625,-0.07004731148481369,0.7267231345176697,-0.48256582021713257
1652389098229725400,10.105725341796875,-0.12746864557266235,0.8018596172332764,-0.3884925842285156
1652389098239723000,10.115722900390624,-0.16717487573623657,0.7768141627311707,-0.3384016454219818
1652389098249720300,10.12572021484375,-0.16778574883937836,0.7413839101791382,-0.3096909821033478
1652389098259718000,10.1357177734375,-0.13724248111248016,0.7419947981834412,-0.32801690697669983
1652389098269715500,10.145715576171876,-0.09692537784576416,0.6631931662559509,-0.3506189286708832
1652389098279713000,10.155713134765625,-0.03461712226271629,0.48970746994018555,-0.35245153307914734
1652389098289710600,10.165710693359374,0.007532579358667135,0.43900564312934875,-0.3194648027420044
1652389098299675000,10.1756748046875,0.02585853636264801,0.385249525308609,-0.2186720371246338
1652389098309639200,10.18563916015625,0.04907141625881195,0.33882373571395874,-0.04885150492191315
1652389098319603200,10.195603271484375,0.1071036159992218,0.26796337962150574,0.15212315320968628
1652389098329567500,10.2055673828125,0.19018128514289856,0.2087094485759735,0.3518761098384857
1652389098339531800,10.21553173828125,0.2793676257133484,0.16594886779785156,0.5583485960960388
1652389098349496000,10.22549609375,0.36733222007751465,0.11280359327793121,0.7782599925994873
1652389098359460400,10.23546044921875,0.4290296137332916,0.0627126470208168,0.995728075504303
1652389098369424400,10.24542431640625,0.4406360387802124,-0.014867237769067287,1.1912049055099487
1652389098379388700,10.255388671875,0.3545040190219879,-0.017310699447989464,1.3439213037490845
1652389098389353000,10.26535302734375,0.10954707115888596,0.04621928930282593,1.5021353960037231
1652389098399317200,10.275317138671875,-0.064549520611763,0.052938804030418396,1.5601675510406494
1652389098409281500,10.285281494140625,-0.20932458341121674,-0.03563665598630905,1.5833803415298462
1652389098419245600,10.29524560546875,-0.3107282221317291,-0.20790064334869385,1.5876564979553223
1652389098429209900,10.3052099609375,-0.37486904859542847,-0.4021557867527008,1.5607784986495972
1652389098439174100,10.315174072265625,-0.3883081078529358,-0.5512068867683411,1.4819767475128174
1652389098449138400,10.325138427734375,-0.33577367663383484,-0.6190129518508911,1.3622472286224365
1652389098459102500,10.3351025390625,-0.26430246233940125,-0.6300085186958313,1.235187292098999
1652389098469066800,10.345066650390624,-0.21421150863170624,-0.666660487651825,1.138670563697815
1652389098479031000,10.355031005859376,-0.13418816030025482,-0.69353848695755,1.1142359972000122
1652389098489028600,10.365028564453125,-0.030341066420078278,-0.6440584063529968,1.1563856601715088
1652389098499026200,10.375026123046876,0.04113017022609711,-0.5493743419647217,1.2174721956253052
1652389098509023700,10.385023681640625,0.045406222343444824,-0.5096681118011475,1.1844854354858398
1652389098519021300,10.395021240234374,-0.004684725776314735,-0.6495562195777893,0.8155228495597839
1652389098529018600,10.4050185546875,-0.027286740019917488,-0.7424077391624451,0.45144712924957275
1652389098539016200,10.41501611328125,-0.031562793999910355,-0.8969566822052002,0.13440807163715363
1652389098549013800,10.425013671875,-0.05355394259095192,-1.1626830101013184,-0.04152112081646919
1652389098559011300,10.43501123046875,-0.12135998904705048,-1.3685446977615356,-0.03235814347863197
1652389098569009000,10.4450087890625,-0.22215275466442108,-1.4039748907089233,0.10203221440315247
1652389098579006500,10.45500634765625,-0.30584126710891724,-1.2903538942337036,0.3274414837360382
1652389098589004000,10.465004150390625,-0.35471051931381226,-1.0527273416519165,0.5723984241485596
1652389098599001600,10.475001708984376,-0.3675386905670166,-0.7949421405792236,0.7245039343833923
1652389098608999200,10.484999267578125,-0.36081916093826294,-0.5848044753074646,0.7342777252197266
1652389098618996700,10.494996826171874,-0.32477810978889465,-0.441862016916275,0.6438696980476379
1652389098628994300,10.504994384765626,-0.256972074508667,-0.39971235394477844,0.4984837770462036
1652389098638992000,10.514991943359375,-0.17206180095672607,-0.4320881962776184,0.33538272976875305
1652389098648989400,10.524989501953126,-0.07921028882265091,-0.49989426136016846,0.19488373398780823
1652389098658987000,10.534987060546875,0.05701266601681709,-0.6067956686019897,0.07820846885442734
1652389098668984600,10.544984619140624,0.13398168981075287,-0.6245107650756836,0.06354770064353943
1652389098678982100,10.554982177734376,0.21217243373394012,-0.6202346682548523,0.08309538662433624
1652389098688979700,10.564979736328125,0.2879197299480438,-0.6006870269775391,0.12646682560443878
1652389098698977300,10.574977294921876,0.3654996156692505,-0.5194419622421265,0.12280163168907166
1652389098708974800,10.584974853515625,0.44307950139045715,-0.5108898282051086,0.08309538662433624
1652389098718972400,10.594972412109374,0.49927911162376404,-0.513944149017334,-0.0030366110149770975
1652389098728970000,10.604969970703126,0.5340984463691711,-0.5542612075805664,-0.10566197335720062
1652389098738967600,10.614967529296875,0.5591439008712769,-0.5951892137527466,-0.18140925467014313
1652389098748965000,10.624965087890626,0.5695286393165588,-0.617180347442627,-0.21073079109191895
1652389098758962700,10.634962646484375,0.5426505208015442,-0.6031305193901062,-0.18385271728038788
1652389098768960300,10.644960205078124,0.5133289694786072,-0.5823610424995422,-0.1624724417924881
1652389098778957800,10.654957763671876,0.4247535467147827,-0.5127224326133728,-0.10810542851686478
1652389098788955400,10.664955322265625,0.2237788736820221,-0.3710016906261444,0.015289346687495708
1652389098798953000,10.674952880859376,0.08877765387296677,-0.3166346848011017,0.12402336299419403
1652389098808950500,10.684950439453125,-0.007739051710814238,-0.29891958832740784,0.24253122508525848
1652389098818948000,10.694947998046874,-0.09142758697271347,-0.30258476734161377,0.34088051319122314
1652389098828945700,10.704945556640626,-0.16412055492401123,-0.3312954306602478,0.41113004088401794
1652389098838943000,10.71494287109375,-0.2013833373785019,-0.3569517731666565,0.44045156240463257
1652389098848940500,10.7249404296875,-0.19283121824264526,-0.3673364818096161,0.4239581823348999
1652389098858938000,10.734938232421875,-0.14457285404205322,-0.3813863694667816,0.3677586019039154
1652389098868935700,10.744935791015624,-0.07004731148481369,-0.40887534618377686,0.2822374701499939
1652389098878933200,10.754933349609376,0.027691131457686424,-0.44002944231033325,0.18327727913856506
1652389098888930800,10.764930908203125,0.13092735409736633,-0.48095741868019104,0.07943020015954971
1652389098898928400,10.774928466796876,0.20728550851345062,-0.5066137909889221,-0.023806029930710793
1652389098908926000,10.784926025390625,0.22194626927375793,-0.40948617458343506,-0.0818382278084755
1652389098918923500,10.794923583984374,0.04846055060625076,-0.16025316715240479,0.038502223789691925
1652389098928921000,10.804921142578126,-0.2722437083721161,-0.037469252943992615,0.17411430180072784
1652389098938918700,10.814918701171875,-0.5843958258628845,0.08226034045219421,0.1307428777217865
1652389098948916200,10.824916259765626,-0.6528127193450928,0.15984022617340088,-0.14475736021995544
1652389098958913800,10.834913818359375,-0.6515910029411316,0.17266839742660522,-0.47401371598243713
1652389098968911400,10.844911376953124,-0.6021109819412231,0.11891224980354309,-0.7409618496894836
1652389098978909000,10.854908935546876,-0.5129246115684509,-0.04479963704943657,-0.9193344712257385
1652389098988906500,10.864906494140625,-0.4683314561843872,-0.18774209916591644,-0.9865296483039856
1652389098998904000,10.874904052734376,-0.3925841748714447,-0.23600046336650848,-0.9517103433609009
1652389099008901600,10.884901611328125,-0.3015652596950531,-0.21278758347034454,-0.8503066897392273
1652389099018899200,10.894899169921874,-0.22826139628887177,-0.08145155012607574,-0.704920768737793
1652389099028896800,10.904896728515626,-0.13785335421562195,0.09692110121250153,-0.5393762588500977
1652389099038894300,10.914894287109375,-0.06699298322200775,0.24108529090881348,-0.3597819209098816
1652389099048892000,10.924891845703126,-0.02973019890487194,0.3614257574081421,-0.17346802353858948
1652389099058889500,10.934889404296875,-0.0034629949368536472,0.49948129057884216,0.08126279711723328
1652389099068887000,10.944886962890624,0.038686707615852356,0.5025356411933899,0.17044910788536072
1652389099078884600,10.954884521484376,0.09305371344089508,0.4726032316684723,0.1405167281627655
1652389099088882200,10.964882080078125,0.18162918090820312,0.48359882831573486,-0.007923533208668232
1652389099098879700,10.974879638671876,0.2885305881500244,0.5037573575973511,-0.22600242495536804
1652389099108877300,10.984877197265625,0.3654996156692505,0.5355223417282104,-0.4391944110393524
1652389099118875000,10.994875,0.3960428833961487,0.6033283472061157,-0.601073682308197
1652389099128872200,11.0048720703125,0.3600018322467804,0.7096189856529236,-0.7018664479255676
1652389099138869800,11.014869873046875,0.2836436629295349,0.8543939590454102,-0.7360748648643494
1652389099148867300,11.024867431640626,0.23599618673324585,1.0242146253585815,-0.6914817690849304
1652389099158865000,11.034864990234375,0.21705935895442963,1.1818177700042725,-0.5894672274589539
1652389099168862500,11.044862548828124,0.2036203145980835,1.27405846118927,-0.4703485071659088
1652389099178860000,11.054860107421876,0.17552052438259125,1.2777236700057983,-0.37810787558555603
1652389099188857600,11.064857666015625,0.12970562279224396,1.1854828596115112,-0.3188539445400238
1652389099198855200,11.074855224609376,0.11504486203193665,1.0907988548278809,-0.31702136993408203
1652389099208852700,11.084852783203125,0.11382313817739487,1.0010015964508057,-0.33717989921569824
1652389099218850300,11.094850341796874,0.12054264545440674,0.9069284200668335,-0.3658905625343323
1652389099228847900,11.104847900390626,0.12665130198001862,0.8293485045433044,-0.4037642180919647
1652389099238845400,11.114845458984375,0.13398168981075287,0.7871988415718079,-0.4654616117477417
1652389099248843000,11.124843017578126,0.14436639845371246,0.7621533870697021,-0.5564805269241333
1652389099258840600,11.134840576171875,0.16513581573963165,0.7022885680198669,-0.665825366973877
1652389099268838100,11.144838134765624,0.18407262861728668,0.6192108988761902,-0.7782245874404907
1652389099278869000,11.154868896484375,0.18101830780506134,0.5104768872261047,-0.8729087114334106
1652389099288899800,11.16489990234375,0.16452494263648987,0.3773082494735718,-0.9272757768630981
1652389099298930700,11.1749306640625,0.13825774192810059,0.2245919406414032,-0.9364387392997742
1652389099308961500,11.18496142578125,0.1223752424120903,0.1280752271413803,-0.9187236428260803
1652389099318992400,11.194992431640625,0.11382313817739487,0.05171707272529602,-0.9089497923851013
1652389099329023200,11.205023193359375,0.11932092159986496,0.00712391035631299,-0.8936781883239746
1652389099339054300,11.215054443359374,0.12359697371721268,-0.022808486595749855,-0.8942890167236328
1652389099349085200,11.225085205078125,0.12542957067489624,-0.017921563237905502,-0.905895471572876
1652389099359116000,11.235115966796876,0.12604042887687683,0.05538226291537285,-0.9120041131973267
1652389099369147000,11.24514697265625,0.10343842208385468,0.11219273507595062,-0.9016193747520447
1652389099379177700,11.255177734375,0.0716734305024147,0.22337020933628082,-0.8698543906211853
1652389099389208600,11.26520849609375,0.029523726552724838,0.33454766869544983,-0.8173199892044067
1652389099399239400,11.275239501953125,-0.04194750636816025,0.5208615660667419,-0.7208032608032227
1652389099409270500,11.2852705078125,-0.06882558017969131,0.5685091018676758,-0.6884274482727051
1652389099419301400,11.29530126953125,-0.10181230306625366,0.6607496738433838,-0.6242865324020386
1652389099429332200,11.305332275390626,-0.11586219817399979,0.5843915343284607,-0.5778607726097107
1652389099439363000,11.315363037109375,-0.08837325870990753,0.559346079826355,-0.5680869817733765
1652389099449394000,11.325393798828125,-0.045612696558237076,0.4964269697666168,-0.5680869817733765
1652389099459424800,11.3354248046875,0.024025941267609596,0.478711873292923,-0.5448740720748901
1652389099469455600,11.34545556640625,0.07594948261976242,0.48970746994018555,-0.5131090879440308
1652389099479520000,11.35552001953125,0.10527101904153824,0.3821951746940613,-0.4752354323863983
1652389099489584000,11.365584228515624,0.1523076444864273,0.32355210185050964,-0.3750535547733307
1652389099499681800,11.375681884765624,0.15963803231716156,0.3259955644607544,-0.22905674576759338
1652389099509779200,11.385779296875,0.17124445736408234,0.3272172808647156,0.052552126348018646
1652389099519876900,11.395876953125,0.20484206080436707,0.30828049778938293,0.2504724860191345
1652389099529974300,11.405974365234375,0.25737646222114563,0.26857423782348633,0.4532797336578369
1652389099540072000,11.416072021484375,0.3239607810974121,0.20626597106456757,0.6646391153335571
1652389099550169300,11.42616943359375,0.37344086170196533,0.14151427149772644,0.8747767210006714
1652389099560267000,11.43626708984375,0.39176681637763977,0.06332351267337799,1.0745296478271484
1652389099570364400,11.446364501953125,0.3587800860404968,0.011399967595934868,1.2455718517303467
1652389099580428500,11.456428466796876,0.2634851038455963,0.030336789786815643,1.3756862878799438
1652389099590493000,11.466492919921874,0.12176438421010971,0.08042774349451065,1.470981240272522
1652389099600557000,11.47655712890625,-0.04378010332584381,0.09631023555994034,1.5326786041259766
1652389099610621200,11.48662109375,-0.2807958126068115,-0.007536855060607195,1.587045669555664
1652389099620685600,11.496685546875,-0.34066060185432434,-0.07167770713567734,1.593765139579773
1652389099630749700,11.506749755859374,-0.42007309198379517,-0.2103441208600998,1.585823893547058
1652389099640813800,11.516813720703125,-0.43534472584724426,-0.3477887809276581,1.4728138446807861
1652389099650878200,11.526878173828125,-0.3785342276096344,-0.380775511264801,1.3182648420333862
1652389099660942300,11.5369423828125,-0.29912176728248596,-0.4058209955692291,1.12767493724823
1652389099671006500,11.54700634765625,-0.2117680460214615,-0.4491924047470093,0.9425827860832214
1652389099681070800,11.55707080078125,-0.11647307127714157,-0.4870660603046417,0.8228532075881958
1652389099691135000,11.567135009765625,-0.019956355914473534,-0.4821791350841522,0.7971968650817871
1652389099701199400,11.577199462890626,0.03807583823800087,-0.4577445387840271,0.8252966403961182
1652389099711263700,11.587263671875,0.05456920340657234,-0.4516358971595764,0.8442334532737732
1652389099721361400,11.597361328125,-0.004684725776314735,-0.5206636190414429,0.740386426448822
1652389100050520300,11.926520263671875,-0.1909986287355423,-0.47545963525772095,0.5418551564216614
1652389100060517000,11.93651708984375,-0.0798211544752121,-0.5389896035194397,0.4545014500617981
1652389100070514700,11.9465146484375,0.06556478142738342,-0.6428367495536804,0.3127807378768921
1652389100080512500,11.956512451171875,0.20423118770122528,-0.7387425303459167,0.1509014219045639
1652389100090509800,11.966509765625,0.2750915586948395,-0.7246926426887512,0.023841459304094315
1652389100100507400,11.97650732421875,0.2750915586948395,-0.5945783853530884,0.003072041319683194
1652389100110505000,11.9865048828125,0.10954707115888596,-0.47118356823921204,0.14845795929431915
1652389100120502500,11.99650244140625,-0.31866946816444397,-0.25432640314102173,0.3518761098384857
1652389100130500000,12.0065,-0.6851885914802551,0.02544986642897129,0.29078957438468933
1652389100140497700,12.01649755859375,-0.8134703636169434,0.16594886779785156,-0.08000563085079193
1652389100150495200,12.0264951171875,-0.8397374749183655,0.12379917502403259,-0.6713231801986694
1652389100160492500,12.036492431640625,-0.6998493671417236,-0.0533517487347126,-0.9553755521774292
1652389100170490400,12.046490478515626,-0.5960022807121277,-0.30441737174987793,-1.114200472831726
1652389100180487700,12.05648779296875,-0.49765297770500183,-0.4265904128551483,-1.1355807781219482
1652389100190485200,12.0664853515625,-0.37486904859542847,-0.47607049345970154,-1.0421184301376343
1652389100200482800,12.07648291015625,-0.27957409620285034,-0.4272013008594513,-0.875352144241333
1652389100210480400,12.08648046875,-0.20199419558048248,-0.2549372911453247,-0.679264485836029
1652389100220478000,12.09647802734375,-0.13113383948802948,-0.025862811133265495,-0.4605746865272522
1652389100230475500,12.1064755859375,-0.07615596055984497,0.17816618084907532,-0.23699800670146942
1652389100240473000,12.11647314453125,-0.030951930209994316,0.3046152889728546,-0.029303815215826035
1652389100250470700,12.126470703125,0.012419501319527626,0.3510410487651825,0.1411276012659073
1652389100260468200,12.13646826171875,0.05273660644888878,0.336380273103714,0.21382056176662445
1652389100270465800,12.1464658203125,0.09427544474601746,0.28690022230148315,0.1454036384820938
1652389100280463400,12.15646337890625,0.2585982084274292,0.23680925369262695,-0.1820201277732849
1652389100290461000,12.1664609375,0.38321468234062195,0.20260077714920044,-0.44347044825553894
1652389100300458500,12.17645849609375,0.4662923812866211,0.20260077714920044,-0.6609385013580322
1652389100310456000,12.1864560546875,0.46873584389686584,0.28323501348495483,-0.8038809299468994
1652389100320453600,12.19645361328125,0.4009298086166382,0.4371730387210846,-0.8600805401802063
1652389100330451200,12.206451171875,0.3294585645198822,0.6332607865333557,-0.8307590484619141
1652389100340448800,12.21644873046875,0.28242194652557373,0.8562266230583191,-0.73424232006073
1652389100350446300,12.2264462890625,0.25615471601486206,1.054757833480835,-0.5949650406837463
1652389100360444000,12.23644384765625,0.21583762764930725,1.155550479888916,-0.4550769031047821
1652389100370441500,12.24644140625,0.16880100965499878,1.169600486755371,-0.34695374965667725
1652389100380439000,12.25643896484375,0.14070120453834534,1.137224555015564,-0.2828128933906555
1652389100390436600,12.2664365234375,0.14131207764148712,1.070640206336975,-0.2596000134944916
1652389100400434000,12.276433837890625,0.15536196529865265,0.9832865595817566,-0.25593483448028564
1652389100410431500,12.286431396484375,0.18224003911018372,0.8140769004821777,-0.25532394647598267
1652389100420429000,12.296428955078126,0.2085072547197342,0.7181710600852966,-0.2742607593536377
1652389100430426600,12.306426513671875,0.24149397015571594,0.6454780697822571,-0.3359581530094147
1652389100440457700,12.316457763671876,0.2738698124885559,0.5648438930511475,-0.44224873185157776
1652389100450488600,12.326488525390625,0.30074790120124817,0.46954888105392456,-0.5882455706596375
1652389100460519400,12.33651953125,0.30074790120124817,0.36448007822036743,-0.7458487749099731
1652389100470550300,12.34655029296875,0.2695937752723694,0.2545243501663208,-0.8832934498786926
1652389100480581000,12.3565810546875,0.21644848585128784,0.1580076366662979,-0.9791992902755737
1652389100490612000,12.366612060546874,0.158416286110878,0.1079166829586029,-1.0335662364959717
1652389100500642800,12.376642822265625,0.09671889990568161,0.06882129609584808,-1.0396748781204224
1652389100510674000,12.386673828125,0.08327987045049667,0.07492995262145996,-1.0329554080963135
1652389100520704800,12.396704833984375,0.06128871813416481,0.1030297577381134,-1.0268467664718628
1652389100530735600,12.406735595703125,0.04723881930112839,0.1647271364927292,-1.0347880125045776
1652389100540766500,12.416766357421874,0.03257805109024048,0.2148181051015854,-1.029901146888733
1652389100550797300,12.42679736328125,0.01669555902481079,0.23070059716701508,-1.0060772895812988
1652389100560828200,12.436828125,-0.00040866885683499277,0.28262415528297424,-0.9486560225486755
1652389100570859000,12.44685888671875,-0.027286740019917488,0.35837143659591675,-0.8692435026168823
1652389100580889900,12.456889892578126,-0.06149519234895706,0.4206796884536743,-0.7653964161872864
1652389100590921000,12.4669208984375,-0.0950927808880806,0.5349115133285522,-0.6407799124717712
1652389102181233200,14.057233154296876,-0.11158614605665207,-0.5188310742378235,-0.0012040153378620744
1652389102191221200,14.06722119140625,-0.048667021095752716,-0.5206636190414429,-0.13559438288211823
1652389102201714200,14.077714111328126,0.04357362911105156,-0.5255506038665771,-0.17468973994255066
1652389102212042000,14.0880419921875,0.10954707115888596,-0.43392080068588257,-0.1117706224322319
1652389102222537200,14.098537109375,0.17918571829795837,-0.3367932140827179,-0.031136412173509598
1652389102232932600,14.1089326171875,0.2592090368270874,-0.2592133581638336,0.029339246451854706
1652389102243262000,14.119261962890626,0.34350845217704773,-0.26348936557769775,0.026895785704255104
1652389102253543700,14.129543701171874,0.41375797986984253,-0.3471779227256775,-0.0048692068085074425
1652389102263915000,14.1399150390625,0.4565185308456421,-0.4577445387840271,-0.055571023374795914
1652389102274244900,14.150244873046875,0.49317044019699097,-0.5585373044013977,-0.08489255607128143
1652389102284641500,14.1606416015625,0.522491991519928,-0.636728048324585,-0.05740361660718918
1652389102295001900,14.171001953125,0.5108855366706848,-0.6379497647285461,-0.004258341621607542
1652389102305331700,14.181331787109375,0.46445977687835693,-0.6135151982307434,0.06904548406600952
1652389102315636200,14.19163623046875,0.3789386451244354,-0.5719763040542603,0.14418192207813263
1652389102325918700,14.201918701171875,0.2598199248313904,-0.4980616569519043,0.19060766696929932
1652389102336182300,14.212182373046875,0.11443399637937546,-0.42536869645118713,0.2058793008327484
1652389102346429200,14.22242919921875,-0.018734626471996307,-0.3978797495365143,0.2009923905134201
1652389102356661200,14.2326611328125,-0.11341874301433563,-0.41559484601020813,0.1912185400724411
1652389102366880500,14.242880615234375,-0.18183565139770508,-0.452246755361557,0.18877507746219635
1652389102377088000,14.253087890625,-0.23742437362670898,-0.4772922396659851,0.19244025647640228
1652389102387285000,14.263284912109375,-0.2459765076637268,-0.45652279257774353,0.20893362164497375
1652389102397472500,14.273472412109374,-0.18488997220993042,-0.43392080068588257,0.20343583822250366
1652389102407697000,14.28369677734375,-0.09448191523551941,-0.4436946511268616,0.15456661581993103
1652389102417911600,14.29391162109375,0.015473827719688416,-0.4791248142719269,0.06660202890634537
1652389102428117000,14.304116943359375,0.13398168981075287,-0.5353243947029114,-0.025638626888394356
1652389102438314000,14.31431396484375,0.2091180980205536,-0.5677002668380737,-0.08855774998664856
1652389102448503600,14.324503662109375,0.1975116729736328,-0.4827900230884552,-0.09405553340911865
1652389102458686000,14.33468603515625,0.06434305012226105,-0.35878437757492065,-0.02747122012078762
1652389102468861700,14.34486181640625,-0.19832901656627655,-0.2353895902633667,0.0397239588201046
1652389102479031300,14.35503125,-0.46710970997810364,-0.057627804577350616,-0.035412468016147614
1652389102489195000,14.365195068359375,-0.6149390935897827,0.11707965284585953,-0.28036946058273315
1652389102499359200,14.375359130859374,-0.6271564364433289,0.27651548385620117,-0.6609385013580322
1652389102509490000,14.385489990234374,-0.5330832004547119,0.22214847803115845,-0.8332024812698364
1652389102519620900,14.395620849609376,-0.42496001720428467,0.05477140098810196,-0.9205561876296997
1652389102529718500,14.405718505859374,-0.34554755687713623,-0.08939279615879059,-0.9107823371887207
1652389102539816000,14.41581591796875,-0.24047870934009552,-0.16819441318511963,-0.8191525936126709
1652389102549913600,14.42591357421875,-0.14945979416370392,-0.14742499589920044,-0.6859839558601379
1652389102560011000,14.436010986328125,-0.06393865495920181,-0.010591181926429272,-0.5454849004745483
1652389102570075100,14.4460751953125,0.038686707615852356,0.17633359134197235,-0.39643383026123047
1652389102580139500,14.456139404296875,0.10771447420120239,0.3595931828022003,-0.23638713359832764
1652389102590170400,14.46617041015625,0.13642513751983643,0.5171964168548584,-0.05007323622703552
1652389102600201200,14.476201171875,0.1327599436044693,0.6699126958847046,0.21076622605323792
1652389102610232000,14.486232177734376,0.13764688372612,0.7022885680198669,0.26085716485977173
1652389102620263000,14.496262939453125,0.16391408443450928,0.721225380897522,0.2626897692680359
1652389102630293800,14.506293701171876,0.25737646222114563,0.6521976590156555,0.01345675066113472
1652389102640324600,14.51632470703125,0.3135760724544525,0.6149348020553589,-0.22966761887073517
1652389102650355500,14.52635546875,0.34350845217704773,0.6198217868804932,-0.439805269241333
1652389102660386600,14.536386474609374,0.31235432624816895,0.6509758830070496,-0.5809151530265808
1652389102670417400,14.54641748046875,0.24638089537620544,0.7358861565589905,-0.6670471429824829
1652389102680448300,14.5564482421875,0.19018128514289856,0.8702765107154846,-0.7134729027748108
1652389102690479000,14.56647900390625,0.16880100965499878,1.0309340953826904,-0.7134729027748108
1652389102700510000,14.576510009765625,0.17002274096012115,1.168989658355713,-0.6633819341659546
1652389102710540800,14.586540771484374,0.1730770617723465,1.2172479629516602,-0.5870237946510315
