time,seconds_elapsed,z,y,x
1646037694875674600,0.324674560546875,0.34216517210006714,0.0031288519967347383,0.4268597960472107
1646037694886750200,0.335750244140625,0.35682591795921326,-0.04451863840222359,0.42380547523498535
1646037694896747800,0.345747802734375,0.3598802387714386,-0.09277699142694473,0.4372445046901703
1646037694906745300,0.355745361328125,0.3537715971469879,-0.14225707948207855,0.46045738458633423
1646037694916743000,0.365742919921875,0.34766295552253723,-0.19112630188465118,0.4781724810600281
1646037694926740500,0.375740478515625,0.3592694103717804,-0.241217240691185,0.45984652638435364
1646037694936738000,0.385738037109375,0.40813860297203064,-0.2968059778213501,0.39814913272857666
1646037694946735900,0.39573583984375,0.4954923391342163,-0.3731641471385956,0.31262800097465515
1646037694956733200,0.405733154296875,0.6475977897644043,-0.4574635326862335,0.19717447459697723
1646037694966730800,0.415730712890625,0.7331189513206482,-0.5325999855995178,0.15013784170150757
1646037694976728300,0.425728271484375,0.785653293132782,-0.6657686233520508,0.1336444914340973
1646037694986726000,0.435725830078125,0.7948163747787476,-0.7958828806877136,0.1684638112783432
1646037694996723500,0.445723388671875,0.8027575612068176,-0.8496390581130981,0.21550042927265167
1646037695006721000,0.455720947265625,0.8455181121826172,-0.8869017958641052,0.23688070476055145
1646037695016718600,0.465718505859375,0.9334827065467834,-0.8948431015014648,0.21305698156356812
1646037695026716200,0.475716064453125,1.0697057247161865,-0.8697975873947144,0.15197044610977173
1646037695036713700,0.485713623046875,1.2395262718200684,-0.8135979771614075,0.09454911202192307
1646037695046711300,0.495711181640625,1.442333459854126,-0.7891634106636047,0.04018210619688034
1646037695056708900,0.505708984375,1.656136393547058,-0.8233718276023865,-0.03251086175441742
1646037695066706400,0.51570654296875,1.84183931350708,-0.8869017958641052,-0.13635796308517456
1646037695076704000,0.5257041015625,1.9316365718841553,-0.6138450503349304,-0.2799112796783447
1646037695086701600,0.53570166015625,1.8797130584716797,-0.5576454401016235,-0.6678107380867004
1646037695096699100,0.54569921875,1.7819745540618896,-0.6871488690376282,-0.8174726963043213
1646037695106696700,0.55569677734375,1.7001186609268188,-0.7317420840263367,-0.881613552570343
1646037695116694300,0.5656943359375,1.6207062005996704,-0.6963118314743042,-0.8883330821990967
1646037695126691800,0.57569189453125,1.5535110235214233,-0.7366289496421814,-0.8693962693214417
1646037695136689200,0.585689208984375,1.529076337814331,-0.7653396129608154,-0.8095314502716064
1646037695146686700,0.595686767578125,1.5101395845413208,-0.7470136880874634,-0.7380602359771729
1646037695156684300,0.605684326171875,1.5138046741485596,-0.7451810836791992,-0.7215668559074402
1646037695166681900,0.615681884765625,1.5559544563293457,-0.7470136880874634,-0.7624948024749756
1646037695176679400,0.625679443359375,1.6097105741500854,-0.7836655974388123,-0.8443507552146912
1646037695186677000,0.635677001953125,1.6817926168441772,-0.788552463054657,-0.9420892596244812
1646037695196674600,0.645674560546875,1.7648704051971436,-0.8056567311286926,-1.0642621517181396
1646037695206672100,0.655672119140625,1.8448936939239502,-0.8209283351898193,-1.1998744010925293
1646037695216669700,0.665669677734375,1.8864325284957886,-0.9498209357261658,-1.4478856325149536
1646037695226667300,0.675667236328125,1.8864325284957886,-0.9999118447303772,-1.5700587034225464
1646037695236664800,0.685664794921875,1.9169758558273315,-0.9950249791145325,-1.6751275062561035
1646037695246662400,0.695662353515625,1.9976099729537964,-0.9663142561912537,-1.7502639293670654
1646037695256660000,0.705659912109375,2.0715246200561523,-0.9437122941017151,-1.7618703842163086
1646037695266657500,0.715657470703125,2.1362764835357666,-1.0035771131515503,-1.7221641540527344
1646037695276655000,0.725655029296875,2.2230193614959717,-1.0652743577957153,-1.645806074142456
1646037695286652700,0.735652587890625,2.3146491050720215,-1.1055915355682373,-1.5615066289901733
1646037695296650200,0.745650146484375,2.3794009685516357,-1.0793243646621704,-1.4344466924667358
1646037695306647800,0.755647705078125,2.3757355213165283,-1.0408397912979126,-1.3397624492645264
1646037695316645400,0.765645263671875,2.338472843170166,-1.0023553371429443,-1.2676804065704346
1646037695326643000,0.775642822265625,2.282273292541504,-0.9736446738243103,-1.2084264755249023
1646037695336640500,0.785640625,2.174150228500366,-0.9883054494857788,-1.1155749559402466
1646037695346638000,0.79563818359375,1.9676775932312012,-0.970590353012085,-1.033108115196228
1646037695356635600,0.8056357421875,1.6158192157745361,-0.8013806939125061,-0.7905945777893066
1646037695366633200,0.81563330078125,1.4637137651443481,-0.6217862963676453,-0.6391000151634216
1646037695376630800,0.825630859375,1.3354320526123047,-0.46601566672325134,-0.5407507419586182
1646037695386628000,0.835628173828125,1.1985982656478882,-0.2851995527744293,-0.49127066135406494
1646037695396625700,0.845625732421875,1.1136879920959473,-0.027414409443736076,-0.54808109998703
1646037695406623200,0.855623291015625,1.0507688522338867,0.20593610405921936,-0.7111821174621582
1646037695416620800,0.865620849609375,0.9939583539962769,0.4570017457008362,-0.8968852162361145
1646037695426618400,0.875618408203125,0.9402022957801819,0.6329309344291687,-1.053877592086792
1646037695436616000,0.885615966796875,0.9243197441101074,0.7453301548957825,-1.1339008808135986
1646037695446613500,0.895613525390625,0.9689128994941711,0.7434975504875183,-1.1222944259643555
1646037695456611000,0.905611083984375,1.0183930397033691,0.6866870522499084,-1.0459362268447876
1646037695466608600,0.915608642578125,1.0495470762252808,0.5846725702285767,-0.9225414991378784
1646037695476606200,0.925606201171875,1.0550448894500732,0.48876672983169556,-0.8498485684394836
1646037695486603800,0.935603759765625,1.102081537246704,0.336050420999527,-0.7863185405731201
1646037695496601300,0.945601318359375,1.0813121795654297,0.3342178165912628,-0.7166799306869507
1646037695506599000,0.955598876953125,1.0507688522338867,0.38858482241630554,-0.6238284111022949
1646037695516596500,0.965596435546875,0.995790958404541,0.4600560665130615,-0.5053205490112305
1646037695526594000,0.975593994140625,0.9304283857345581,0.4661647081375122,-0.3666541576385498
1646037695536591600,0.985591552734375,0.9108807444572449,0.3610958755016327,-0.22248993813991547
1646037695546589200,0.995589111328125,0.9035503268241882,0.21021217107772827,-0.06671931594610214
1646037695556586800,1.005586669921875,0.873617947101593,0.0025179865770041943,0.09210564941167831
1646037695566584300,1.015584228515625,0.8106988072395325,-0.2009001523256302,0.2497088760137558
1646037695576582000,1.025581787109375,0.7245668172836304,-0.3578925132751465,0.3895970284938812
1646037695586579500,1.035579345703125,0.6280500888824463,-0.4470788240432739,0.46962034702301025
1646037695596577000,1.045576904296875,0.5364203453063965,-0.47578948736190796,0.4879463315010071
1646037695606574600,1.05557470703125,0.4643382132053375,-0.44952231645584106,0.44457489252090454
1646037695616572000,1.065572021484375,0.4154689908027649,-0.3780510425567627,0.3657732903957367
1646037695626569500,1.075569580078125,0.37759536504745483,-0.2314434051513672,0.19656361639499664
1646037695636567000,1.085567138671875,0.35254985094070435,-0.10804862529039383,0.08905132114887238
1646037695646564600,1.095564697265625,0.3342239260673523,0.02023307792842388,-0.008076248690485954
1646037695656562200,1.105562255859375,0.3042915463447571,0.13690833747386932,-0.10214950144290924
1646037695666559700,1.115559814453125,0.2578657567501068,0.2541944682598114,-0.18889236450195312
1646037695676557300,1.125557373046875,0.19983357191085815,0.3855305016040802,-0.2750243544578552
1646037695686555000,1.135554931640625,0.13263839483261108,0.5022057294845581,-0.348328173160553
1646037695696552400,1.145552490234375,0.07521705329418182,0.5571836829185486,-0.38986703753471375
1646037695706550000,1.155550048828125,0.030623896047472954,0.5449662804603577,-0.3935322165489197
1646037695716547600,1.165547607421875,-0.004195422865450382,0.47960373759269714,-0.3416086733341217
1646037695726545200,1.175545166015625,-0.023132245987653732,0.38308703899383545,-0.23653985559940338
1646037695736542700,1.185542724609375,-0.043290797621011734,0.26213571429252625,-0.09970603883266449
1646037695746540300,1.195540283203125,-0.07383406162261963,0.11674978584051132,0.048123352229595184
1646037695756537900,1.205537841796875,-0.13492058217525482,-0.04635123535990715,0.2637587785720825
1646037695766535400,1.215535400390625,-0.17462682723999023,-0.11171381175518036,0.38348838686943054
1646037695776533000,1.225532958984375,-0.21311134099960327,-0.1501983255147934,0.4873354434967041
1646037695786530600,1.235530517578125,-0.22716124355793,-0.14347881078720093,0.6027889847755432
1646037695796528000,1.245528076171875,-0.20883527398109436,-0.08117055147886276,0.7139664888381958
1646037695806525700,1.255525634765625,-0.1758485585451126,-0.015807971358299255,0.7762747406959534
1646037695816523300,1.265523193359375,-0.17462682723999023,0.04283509403467178,0.7909354567527771
1646037695826520800,1.275520751953125,-0.20028316974639893,0.14546045660972595,0.7322924137115479
1646037695836518400,1.285518310546875,-0.22288517653942108,0.22975985705852509,0.6205040812492371
1646037695846516000,1.295515869140625,-0.2815282344818115,0.3299417793750763,0.4879463315010071
1646037695856513500,1.305513427734375,-0.3371169865131378,0.397136926651001,0.3144606053829193
1646037695866511000,1.315510986328125,-0.35971900820732117,0.445395290851593,0.16113342344760895
1646037695876508700,1.3255087890625,-0.3688820004463196,0.47899287939071655,0.07133623212575912
1646037695886506000,1.335506103515625,-0.3884296715259552,0.487544983625412,0.03896037116646767
1646037695896503800,1.34550390625,-0.42752501368522644,0.43439972400665283,0.06522757560014725
1646037695906501000,1.355501220703125,-0.4849463701248169,0.3238331079483032,0.13730967044830322
1646037695916498700,1.365498779296875,-0.5490872263908386,0.15401257574558258,0.23810245096683502
1646037695926496300,1.375496337890625,-0.6065085530281067,-0.06773151457309723,0.3651624023914337
1646037695936493800,1.385493896484375,-0.6523234248161316,-0.2906973361968994,0.4977201819419861
1646037695946491600,1.39549169921875,-0.6914188265800476,-0.5038893222808838,0.6137845516204834
1646037695956489200,1.4054892578125,-0.7195186018943787,-0.685316264629364,0.704803466796875
1646037695966486800,1.41548681640625,-0.7500618696212769,-0.8013806939125061,0.7719986438751221
1646037695976484000,1.425484130859375,-0.7702204585075378,-0.8490281105041504,0.8055962324142456
1646037695986481700,1.435481689453125,-0.7512836456298828,-0.8441412448883057,0.8043745160102844
1646037695996479200,1.445479248046875,-0.704246997833252,-0.8252044320106506,0.7762747406959534
1646037696006476800,1.455476806640625,-0.6761472225189209,-0.7916067838668823,0.7390119433403015
1646037696016474400,1.465474365234375,-0.6938623189926147,-0.7457919120788574,0.6889210343360901
1646037696026472000,1.475471923828125,-0.7665552496910095,-0.7207464575767517,0.5636935830116272
1646037696036469500,1.485469482421875,-0.7787725925445557,-0.7604526877403259,0.4934441149234772
1646037696046467000,1.495467041015625,-0.7372336983680725,-0.838032603263855,0.4574030637741089
1646037696056464600,1.505464599609375,-0.6639298796653748,-0.9394361972808838,0.44946181774139404
1646037696066462200,1.515462158203125,-0.6168932318687439,-1.0383963584899902,0.46962034702301025
1646037696076459800,1.525459716796875,-0.6284996867179871,-1.1208631992340088,0.5111591815948486
1646037696086457300,1.535457275390625,-0.6950839757919312,-1.1990540027618408,0.5636935830116272
1646037696096455000,1.545454833984375,-0.7995420098304749,-1.2613621950149536,0.6351648569107056
1646037696106452500,1.555452392578125,-0.9217150211334229,-1.3053444623947144,0.7335141897201538
1646037696116450000,1.565449951171875,-1.035335898399353,-1.3865896463394165,0.8880630731582642
1646037696126447600,1.575447509765625,-1.100698471069336,-1.5533558130264282,1.1208027601242065
1646037696136445200,1.585445068359375,-1.1281875371932983,-1.8221365213394165,1.3975247144699097
1646037696146442800,1.59544287109375,-1.167893648147583,-2.093360662460327,1.657753348350525
1646037696156440300,1.6054404296875,-1.2845690250396729,-2.2277510166168213,1.9192036390304565
1646037696166438000,1.61543798828125,-1.3523750305175781,-2.1361212730407715,1.9967834949493408
1646037696176435500,1.625435546875,-1.4030767679214478,-1.940644383430481,1.9967834949493408
1646037696186433000,1.63543310546875,-1.434230923652649,-1.7109589576721191,1.8990449905395508
1646037696196430600,1.6454306640625,-1.4104071855545044,-1.5173146724700928,1.7200615406036377
1646037696206428200,1.65542822265625,-1.3328273296356201,-1.3248921632766724,1.5441323518753052
1646037696216425700,1.66542578125,-1.2387540340423584,-1.1624020338058472,1.333994746208191
1646037696226423000,1.675423095703125,-1.115970253944397,-0.9980792999267578,1.1568437814712524
1646037696236420600,1.685420654296875,-0.9608104228973389,-0.845973789691925,1.038335919380188
1646037696246418200,1.695418212890625,-0.8050397634506226,-0.7274659872055054,0.9448735117912292
1646037696256415700,1.705415771484375,-0.6688168048858643,-0.6407231688499451,0.8562980890274048
1646037696266413300,1.715413330078125,-0.5576393604278564,-0.5655866861343384,0.7793290615081787
1646037696276411000,1.725410888671875,-0.46845299005508423,-0.5038893222808838,0.7133556008338928
1646037696286408400,1.735408447265625,-0.3896513879299164,-0.42142248153686523,0.6137845516204834
1646037696296406000,1.745406005859375,-0.3743797540664673,-0.37377500534057617,0.5435351133346558
1646037696306403600,1.755403564453125,-0.37682321667671204,-0.3383448123931885,0.46900951862335205
1646037696316401200,1.765401123046875,-0.3975926637649536,-0.3102450370788574,0.3908187448978424
1646037696326398700,1.775398681640625,-0.42569243907928467,-0.2754257023334503,0.32056924700737
1646037696336396300,1.785396240234375,-0.4495161771774292,-0.24366070330142975,0.2637587785720825
1646037696346393900,1.795393798828125,-0.4690638780593872,-0.21433916687965393,0.22221995890140533
1646037696356391400,1.805391357421875,-0.4855572283267975,-0.19356976449489594,0.1886223554611206
1646037696366389000,1.815388916015625,-0.49166589975357056,-0.16852428019046783,0.16174429655075073
1646037696376386600,1.825386474609375,-0.47089648246765137,-0.12576371431350708,0.14036399126052856
1646037696386384100,1.835384033203125,-0.42752501368522644,-0.0891117975115776,0.10615554451942444
1646037696396381700,1.845381591796875,-0.38537532091140747,-0.053681619465351105,0.07439055293798447
1646037696406379300,1.855379150390625,-0.35605379939079285,-0.02313835360109806,0.04934508353471756
1646037696416376600,1.86537646484375,-0.3377278447151184,0.011070099659264088,0.03773864358663559
1646037696426374100,1.8753740234375,-0.3230670690536499,0.05077634006738663,0.021245284005999565
1646037696436371700,1.885371826171875,-0.30596286058425903,0.05871758982539177,0.0035301903262734413
1646037696446369300,1.895369384765625,-0.26992180943489075,0.08131960034370422,-0.003800192615017295
1646037696456366800,1.905366943359375,-0.21983085572719574,0.1075868085026741,-0.014795767143368721
1646037696466364400,1.915364501953125,-0.1611877828836441,0.13446487486362457,-0.021515285596251488
1646037696476362000,1.925362060546875,-0.09093828499317169,0.1534017026424408,-0.022126149386167526
1646037696486359600,1.935359619140625,0.004967555869370699,0.18027977645397186,-0.01051971036940813
1646037696496357000,1.945357177734375,0.10942551493644714,0.20227092504501343,-0.017239227890968323
1646037696506354700,1.955354736328125,0.207774817943573,0.19494053721427917,-0.04656076058745384
1646037696516352300,1.965352294921875,0.29085248708724976,0.16928419470787048,-0.08321267366409302
1646037696526349800,1.975349853515625,0.3586585521697998,0.13079968094825745,-0.12352977693080902
1646037696536347400,1.985347412109375,0.41607987880706787,0.0825413390994072,-0.15834911167621613
1646037696546345000,1.995344970703125,0.45334264636039734,0.039169903844594955,-0.19744446873664856
1646037696556342500,2.005342529296875,0.48205330967903137,0.0031288519967347383,-0.254865825176239
1646037696566340000,2.015340087890625,0.5101531147956848,-0.005423261784017086,-0.2915177345275879
1646037696576337700,2.025337646484375,0.5559680461883545,-0.015197105705738068,-0.33000221848487854
1646037696586335200,2.035335205078125,0.6188871264457703,-0.027414409443736076,-0.3721519410610199
1646037696596332800,2.045332763671875,0.6976886987686157,-0.039631713181734085,-0.40452781319618225
1646037696606330400,2.055330322265625,0.7807664275169373,-0.03840998560190201,-0.42468634247779846
1646037696616328000,2.065327880859375,0.8387986421585083,-0.021305756643414497,-0.4430122971534729
1646037696626325500,2.075325439453125,0.8705636262893677,-0.01153191365301609,-0.4485101103782654
1646037696636323000,2.085322998046875,0.8876678347587585,0.02389826998114586,-0.4289624094963074
1646037696646320600,2.095320556640625,0.8895004391670227,0.08193046599626541,-0.3984191417694092
1646037696656318200,2.105318115234375,0.8785048723220825,0.12408016622066498,-0.3715410828590393
1646037696666315800,2.115315673828125,0.8424637913703918,0.1588994860649109,-0.37948232889175415
1646037696676346600,2.1253466796875,0.7196798920631409,0.1588994860649109,-0.5303660035133362
1646037696686377500,2.13537744140625,0.6390456557273865,0.15462343394756317,-0.7166799306869507
1646037696696408300,2.145408203125,0.6072806715965271,0.2083795815706253,-0.8993285894393921
1646037696706439200,2.155439208984375,0.6366022229194641,0.32810917496681213,-1.0697599649429321
1646037696716470300,2.16547021484375,0.7282319664955139,0.45394739508628845,-1.2206437587738037
1646037696726501000,2.175501220703125,0.8485724329948425,0.5724552869796753,-1.3477036952972412
1646037696736532000,2.185531982421875,0.967080295085907,0.6946282982826233,-1.4167314767837524
1646037696746562800,2.195562744140625,1.0764251947402954,0.8418468832969666,-1.3916860818862915
1646037696756593700,2.20559375,1.1558376550674438,0.9896762371063232,-1.2963910102844238
1646037696766624500,2.21562451171875,1.1894352436065674,1.099021077156067,-1.1772723197937012
1646037696776655400,2.2256552734375,1.1766070127487183,1.1747684478759766,-1.0752577781677246
1646037696786686500,2.2356865234375,1.1228508949279785,1.2309679985046387,-0.9940127730369568
1646037696796717300,2.24571728515625,1.0110626220703125,1.2517374753952026,-0.8974960446357727
1646037696806748200,2.255748046875,0.9426456689834595,1.224859356880188,-0.8651201725006104
1646037696816779000,2.265779052734375,0.8809483051300049,1.157664179801941,-0.8406856060028076
1646037696826809900,2.275809814453125,0.8424637913703918,1.0605366230010986,-0.7973141670227051
1646037696836840700,2.2858408203125,0.8143640160560608,0.9487482309341431,-0.7368385195732117
1646037696846871800,2.295871826171875,0.7917619347572327,0.827186107635498,-0.6598694324493408
1646037696856902700,2.305902587890625,0.7654948234558105,0.7123433947563171,-0.5737375020980835
1646037696866933500,2.31593359375,0.7294537425041199,0.6121615171432495,-0.500433623790741
1646037696876964400,2.32596435546875,0.6805845499038696,0.5516858696937561,-0.45950567722320557
1646037696886995200,2.3359951171875,0.6311044096946716,0.5620705485343933,-0.45950567722320557
1646037696897026000,2.346026123046875,0.5529137253761292,0.6091071963310242,-0.5273116827011108
1646037696907057000,2.356056884765625,0.4655599296092987,0.6897413730621338,-0.6537607908248901
1646037696917087700,2.366087646484375,0.3855365812778473,0.8070275187492371,-0.8083096742630005
1646037696927118600,2.37611865234375,0.3281152546405792,0.9713502526283264,-0.9628586173057556
1646037696937149400,2.3861494140625,0.2932959496974945,1.2034790515899658,-1.1717745065689087
1646037696947180300,2.39618017578125,0.3055132329463959,1.3146564960479736,-1.2591283321380615
1646037696957211400,2.40621142578125,0.3378891348838806,1.3885711431503296,-1.2988344430923462
1646037696967242200,2.4162421875,0.3751518726348877,1.3946799039840698,-1.2976127862930298
1646037696977239800,2.42623974609375,0.4136364161968231,1.3720778226852417,-1.2463001012802124
1646037696987237400,2.4362373046875,0.4460122585296631,1.3232085704803467,-1.1552811861038208
1646037696997235000,2.44623486328125,0.4655599296092987,1.2486830949783325,-1.039827585220337
1646037697007232500,2.456232421875,0.4710577428340912,1.156442403793335,-0.9139893651008606
1646037697017230000,2.46622998046875,0.4667816758155823,1.036712884902954,-0.7857077121734619
1646037697027227600,2.4762275390625,0.4649491012096405,0.8907160758972168,-0.6507064700126648
1646037697037225000,2.486224853515625,0.4667816758155823,0.7343345284461975,-0.5181487202644348
1646037697047222500,2.496222412109375,0.469225138425827,0.578563928604126,-0.3929213583469391
1646037697057220000,2.50622021484375,0.47350117564201355,0.4362322986125946,-0.27441349625587463
1646037697067217700,2.5162177734375,0.46800342202186584,0.2890138030052185,-0.12597323954105377
1646037697077215200,2.52621533203125,0.44784486293792725,0.23831196129322052,-0.06488671898841858
1646037697087212800,2.536212890625,0.4258536994457245,0.23709024488925934,-0.04472816362977028
1646037697097210400,2.54621044921875,0.39714303612709045,0.2939006984233856,-0.06610844284296036
1646037697107208000,2.5562080078125,0.3537715971469879,0.38369789719581604,-0.10764728486537933
1646037697117205500,2.56620556640625,0.34583035111427307,0.5107578635215759,-0.13819055259227753
1646037697127203000,2.576203125,0.3580476641654968,0.6677502393722534,-0.1442991942167282
1646037697137200600,2.58620068359375,0.41669073700904846,0.797864556312561,-0.1296384334564209
1646037697147198200,2.5961982421875,0.5052661895751953,0.8143579363822937,-0.12108632177114487
1646037697157195800,2.60619580078125,0.5755156874656677,0.7245607376098633,-0.15590563416481018
1646037697167193300,2.616193359375,0.6023937463760376,0.6054419279098511,-0.21210524439811707
1646037697177191000,2.62619091796875,0.5804026126861572,0.47838202118873596,-0.26830485463142395
1646037697187188500,2.6361884765625,0.5101531147956848,0.3562089502811432,-0.30862194299697876
1646037697197186000,2.64618603515625,0.3757627606391907,0.22242946922779083,-0.30923283100128174
1646037697207183600,2.65618359375,0.30245891213417053,0.16928419470787048,-0.2505897581577301
1646037697217181000,2.666180908203125,0.2523679733276367,0.10697594285011292,-0.1644577533006668
1646037697227178500,2.676178466796875,0.2230464518070221,0.04161336272954941,-0.07221709936857224
1646037697237176000,2.686176025390625,0.21205087006092072,-0.02313835360109806,0.014525764621794224
1646037697247173600,2.696173583984375,0.21938125789165497,-0.08117055147886276,0.09393824636936188
1646037697257171200,2.706171142578125,0.21938125789165497,-0.12698544561862946,0.1538030356168747
1646037697267168800,2.716168701171875,0.1980009824037552,-0.1648590862751007,0.19595274329185486
1646037697277166300,2.726166259765625,0.15524040162563324,-0.17707639932632446,0.2240525484085083
1646037697287164000,2.736163818359375,0.09842994064092636,-0.16302648186683655,0.24298936128616333
1646037697297161500,2.746161376953125,0.030623896047472954,-0.11721160262823105,0.2490980178117752
1646037697307159000,2.756158935546875,-0.04451252892613411,-0.056735944002866745,0.24726542830467224
1646037697317156600,2.766156494140625,-0.11476203054189682,0.011680965311825275,0.24176764488220215
1646037697327154200,2.776154296875,-0.1856224089860916,0.07337835431098938,0.2393241673707962
1646037697337151700,2.78615185546875,-0.3139041066169739,0.1075868085026741,0.20022881031036377
1646037697347149300,2.7961494140625,-0.37132543325424194,0.051998071372509,0.14036399126052856
1646037697357147000,2.80614697265625,-0.38171014189720154,-0.027414409443736076,0.08416440337896347
1646037697367144400,2.81614453125,-0.3725471794605255,-0.10560516268014908,0.04873421788215637
1646037697377142000,2.82614208984375,-0.36032986640930176,-0.1801307201385498,0.015747494995594025
1646037697387139600,2.8361396484375,-0.3884296715259552,-0.24366070330142975,-0.03006739728152752
1646037697397137200,2.84613720703125,-0.4544031023979187,-0.2821452021598816,-0.07282796502113342
1646037697407134700,2.856134765625,-0.5655805468559265,-0.31818628311157227,-0.11803199350833893
1646037697417132300,2.86613232421875,-0.7024143934249878,-0.3664446175098419,-0.14063400030136108
1646037697427129900,2.8761298828125,-0.8380264639854431,-0.3682772219181061,-0.08504527062177658
1646037697437127400,2.88612744140625,-0.9430952668190002,-0.3084124028682709,0.07988834381103516
1646037697447125000,2.896125,-0.9956297278404236,-0.25893235206604004,0.30896279215812683
1646037697457122600,2.90612255859375,-1.0133447647094727,-0.24427157640457153,0.5807978510856628
1646037697467120000,2.9161201171875,-1.007236123085022,-0.2931407690048218,1.017566442489624
1646037697477117700,2.92611767578125,-1.0023492574691772,-0.38110536336898804,1.2710756063461304
1646037697487115000,2.936114990234375,-1.0096796751022339,-0.505111038684845,1.4634981155395508
1646037697497112600,2.946112548828125,-1.0243403911590576,-0.6413339972496033,1.610716700553894
1646037697507110100,2.956110107421875,-1.0096796751022339,-0.7512897253036499,1.7157855033874512
1646037697517107700,2.966107666015625,-0.9675298929214478,-0.8343673944473267,1.7469395399093628
1646037697527105500,2.97610546875,-0.9351540803909302,-0.896064817905426,1.6895183324813843
1646037697537103000,2.98610302734375,-0.9339323043823242,-0.9095038175582886,1.558793067932129
1646037697547100700,2.9961005859375,-0.9870775938034058,-0.866743266582489,1.3761444091796875
1646037697557098000,3.006097900390625,-1.042055368423462,-0.8013806939125061,1.1507351398468018
1646037697567095600,3.016095458984375,-1.0457206964492798,-0.685316264629364,0.924714982509613
1646037697577093000,3.026093017578125,-1.0206751823425293,-0.5264913439750671,0.7225185632705688
1646037697587124200,3.036124267578125,-1.0011274814605713,-0.2772583067417145,0.45373788475990295
1646037697597155000,3.046155029296875,-0.9828015565872192,-0.18746110796928406,0.2790304124355316
1646037697607186000,3.05618603515625,-0.9632538557052612,-0.1801307201385498,0.1031012237071991
1646037697617216800,3.066216796875,-0.9608104228973389,-0.2253347486257553,-0.06733017414808273
1646037697627247600,3.07624755859375,-0.9809689521789551,-0.2809234857559204,-0.21943561732769012
1646037697637278500,3.086278564453125,-1.0231186151504517,-0.31818628311157227,-0.33000221848487854
1646037697647309600,3.0963095703125,-1.0762639045715332,-0.32062971591949463,-0.4039169251918793
1646037697657340400,3.10634033203125,-1.1355178356170654,-0.29924944043159485,-0.45584049820899963
1646037697667371300,3.116371337890625,-1.1947717666625977,-0.2454933077096939,-0.49615758657455444
1646037697677402000,3.126402099609375,-1.2338671684265137,-0.1447005271911621,-0.5144835114479065
1646037697687433000,3.136432861328125,-1.2399758100509644,-0.02313835360109806,-0.5205921530723572
1646037697697463800,3.1464638671875,-1.2155412435531616,0.09659123420715332,-0.5187596082687378
1646037697707494700,3.15649462890625,-1.1459026336669922,0.25236186385154724,-0.5095966458320618
1646037697717525800,3.16652587890625,-1.0890920162200928,0.32200053334236145,-0.49554672837257385
1646037697727556600,3.176556640625,-1.0298380851745605,0.37392404675483704,-0.48455116152763367
1646037697737587500,3.18658740234375,-0.9779146313667297,0.3965260684490204,-0.487605482339859
1646037697747618300,3.196618408203125,-0.9406518340110779,0.40263473987579346,-0.5028771162033081
1646037697757649200,3.206649169921875,-0.9156063795089722,0.4008021354675293,-0.5364746451377869
1646037697767680000,3.216679931640625,-0.8997238874435425,0.39408260583877563,-0.5841221809387207
1646037697777710800,3.2267109375,-0.8820087909698486,0.40935423970222473,-0.6372674703598022
1646037697787742000,3.236741943359375,-0.8453568816184998,0.4557799994945526,-0.6781954169273376
1646037697797772800,3.246772705078125,-0.790378987789154,0.5168665051460266,-0.7093495726585388
1646037697807803600,3.2568037109375,-0.7182968854904175,0.5541292428970337,-0.7325624227523804
1646037697817834500,3.26683447265625,-0.5973455905914307,0.5467989444732666,-0.7551644444465637
1646037697827865300,3.276865234375,-0.5545850396156311,0.5364142060279846,-0.7551644444465637
1646037697837896200,3.286896240234375,-0.43546628952026367,0.5058709383010864,-0.7270646095275879
1646037697847927300,3.29692724609375,-0.3639950454235077,0.49365365505218506,-0.6952996253967285
1646037697857958100,3.306958251953125,-0.2882477641105652,0.45822346210479736,-0.6629237532615662
1646037697867989000,3.316989013671875,-0.20455922186374664,0.40385645627975464,-0.6195523738861084
1646037697878019800,3.327019775390625,-0.12025982141494751,0.35926327109336853,-0.5737375020980835
1646037697888017400,3.337017333984375,-0.03901474177837372,0.31833532452583313,-0.5499137043952942
1646037697898015000,3.347014892578125,0.04039774090051651,0.28657031059265137,-0.5566332340240479
1646037697908012500,3.357012451171875,0.12469714134931564,0.28290513157844543,-0.5798461437225342
1646037697918010000,3.367010009765625,0.21143999695777893,0.2945115566253662,-0.6183305978775024
1646037697928007700,3.377007568359375,0.29146334528923035,0.31650272011756897,-0.6641455292701721
1646037697938005000,3.3870048828125,0.369043231010437,0.34276992082595825,-0.7038517594337463
1646037697948002600,3.39700244140625,0.44723400473594666,0.3672045171260834,-0.7301189303398132
1646037697958000000,3.407000244140625,0.5260356068611145,0.3812544345855713,-0.7362275719642639
1646037697967997700,3.416997802734375,0.6017829179763794,0.3946934938430786,-0.7233994603157043
1646037697977995300,3.426995361328125,0.6964670419692993,0.3812544345855713,-0.6867475509643555
1646037697987992800,3.436992919921875,0.7355623841285706,0.36231762170791626,-0.672086775302887
1646037697997990400,3.446990478515625,0.7557209730148315,0.3458242416381836,-0.6843040585517883
1646037698007988000,3.456988037109375,0.7636621594429016,0.3342178165912628,-0.7417253851890564
1646037698017985500,3.466985595703125,0.7899293899536133,0.33299610018730164,-0.8425182104110718
1646037698027983000,3.476983154296875,0.8320791125297546,0.3201678991317749,-0.9982888102531433
1646037698037980700,3.486980712890625,0.9212654232978821,0.3207787871360779,-1.172385334968567
1646037698047978200,3.496978271484375,1.0477144718170166,0.3501003086566925,-1.3214365243911743
1646037698057975800,3.506975830078125,1.186991810798645,0.4209606945514679,-1.4399443864822388
1646037698067973400,3.516973388671875,1.309775710105896,0.5156447887420654,-1.5389045476913452
1646037698077971000,3.526970947265625,1.4001836776733398,0.6139940619468689,-1.6146517992019653
1646037698087968500,3.536968505859375,1.4753202199935913,0.7184520363807678,-1.6616884469985962
1646037698097965800,3.5469658203125,1.5461804866790771,0.7929775714874268,-1.6671862602233887
1646037698107963400,3.55696337890625,1.6231495141983032,0.8143579363822937,-1.596936821937561
1646037698117961000,3.5669609375,1.6457515954971313,0.7850363850593567,-1.4961440563201904
1646037698127958500,3.57695849609375,1.6451407670974731,0.7441083788871765,-1.3586993217468262
1646037698137956000,3.5869560546875,1.6274256706237793,0.7141759991645813,-1.2029286623001099
1646037698147953700,3.59695361328125,1.5883302688598633,0.7031804323196411,-1.0508232116699219
1646037698157951200,3.606951171875,1.5205241441726685,0.7123433947563171,-0.9139893651008606
1646037698167948800,3.61694873046875,1.4319487810134888,0.730058491230011,-0.7875402569770813
1646037698177946400,3.6269462890625,1.3427624702453613,0.7441083788871765,-0.6739193797111511
1646037698187944000,3.63694384765625,1.260906457901001,0.7276150584220886,-0.5761809349060059
1646037698197941500,3.64694140625,1.1985982656478882,0.6591981053352356,-0.4827185273170471
1646037698207939000,3.65693896484375,1.1613354682922363,0.5535184144973755,-0.37887147068977356
1646037698217936600,3.6669365234375,1.128348708152771,0.4356214702129364,-0.28479820489883423
1646037698227934200,3.676934326171875,1.0758143663406372,0.3244439661502838,-0.22187909483909607
1646037698237931800,3.686931884765625,0.9909040331840515,0.25052928924560547,-0.2047748565673828
1646037698247929300,3.696929443359375,0.8326899409294128,0.2444206178188324,-0.2713591754436493
1646037698257927000,3.706927001953125,0.7263994216918945,0.32322221994400024,-0.36359983682632446
1646037698267924500,3.716924560546875,0.6384348273277283,0.47838202118873596,-0.4943249821662903
1646037698277922000,3.726922119140625,0.5724613666534424,0.671415388584137,-0.6665889620780945
1646037698287919600,3.736919677734375,0.5272573232650757,0.8925486207008362,-0.8700070977210999
1646037698297917200,3.746917236328125,0.5107640027999878,1.121623158454895,-1.083199143409729
1646037698307914800,3.756914794921875,0.5150400400161743,1.3403128385543823,-1.2823412418365479
1646037698317912300,3.766912353515625,0.5254247188568115,1.5333462953567505,-1.441776990890503
1646037698327910000,3.776909912109375,0.5333659648895264,1.699501633644104,-1.5553979873657227
1646037698337907500,3.786907470703125,0.5284790396690369,1.8173986673355103,-1.6256474256515503
1646037698347905000,3.796905029296875,0.49854665994644165,1.8803178071975708,-1.6421407461166382
1646037698357902600,3.806902587890625,0.45884042978286743,1.8870372772216797,-1.6030454635620117
1646037698367900000,3.81689990234375,0.40752774477005005,1.8357245922088623,-1.516302466392517
1646037698377897700,3.826897705078125,0.2920742332935333,1.6964472532272339,-1.3532015085220337
1646037698387895000,3.83689501953125,0.20899654924869537,1.5773285627365112,-1.2291959524154663
1646037698397892600,3.846892578125,0.15951646864414215,1.4661511182785034,-1.0972490310668945
1646037698407890200,3.85689013671875,0.14363397657871246,1.3678017854690552,-0.9720215797424316
1646037698417887700,3.8668876953125,0.14546656608581543,1.2938871383666992,-0.8614550232887268
1646037698427885300,3.87688525390625,0.16990116238594055,1.2285245656967163,-0.7649382948875427
1646037698437883000,3.8868828125,0.2126617431640625,1.166216254234314,-0.6647564172744751
1646037698447880400,3.89688037109375,0.2535897195339203,1.1185688972473145,-0.5737375020980835
1646037698457878000,3.9068779296875,0.2737482488155365,1.0770299434661865,-0.500433623790741
1646037698467875600,3.91687548828125,0.2823003828525543,1.0385453701019287,-0.4369036555290222
1646037698477873200,3.926873046875,0.29146334528923035,0.9976174831390381,-0.38009315729141235
1646037698487870700,3.93687060546875,0.2932959496974945,0.9579112529754639,-0.3361108899116516
1646037698497868300,3.946868408203125,0.2969611585140228,0.9481374025344849,-0.30434587597846985
1646037698507865900,3.956865966796875,0.2823003828525543,0.9921196699142456,-0.3025133013725281
1646037698517863400,3.966863525390625,0.2542005777359009,1.0385453701019287,-0.34893906116485596
1646037698527861000,3.976861083984375,0.2230464518070221,1.1032971143722534,-0.4289624094963074
1646037698537858600,3.986858642578125,0.19555750489234924,1.1839313507080078,-0.5236465334892273
1646037698547856100,3.996856201171875,0.17906415462493896,1.2688416242599487,-0.6195523738861084
1646037698557853700,4.006853759765625,0.16623598337173462,1.3366477489471436,-0.7050734758377075
1646037698567851300,4.016851318359375,0.15585127472877502,1.3879603147506714,-0.7698252201080322
1646037698577848800,4.026848876953125,0.15951646864414215,1.411784052848816,-0.7991467118263245
1646037698587846400,4.036846435546875,0.1619599312543869,1.406286358833313,-0.7991467118263245
1646037698597844000,4.046843994140625,0.15585127472877502,1.3568062782287598,-0.7795990705490112
1646037698607841500,4.056841552734375,0.14057964086532593,1.290221929550171,-0.7447797060012817
1646037698617838800,4.0668388671875,0.12042108923196793,1.2169181108474731,-0.6934670209884644
1646037698627836400,4.07683642578125,0.09781907498836517,1.1448359489440918,-0.6488739252090454
1646037698637834000,4.086833984375,0.0660540759563446,1.080084204673767,-0.6195523738861084
1646037698647831600,4.09683154296875,0.015963131561875343,1.0519845485687256,-0.6055024266242981
1646037698657829000,4.1068291015625,-0.02924089878797531,1.0580931901931763,-0.6097785234451294
1646037698667826700,4.11682666015625,-0.09277088195085526,1.0678669214248657,-0.6458196043968201
1646037698677824300,4.12682421875,-0.15385740995407104,1.0538170337677002,-0.7069060802459717
1646037698687821800,4.13682177734375,-0.18867672979831696,1.0012826919555664,-0.7521101236343384
1646037698697819400,4.1468193359375,-0.1862332671880722,0.9377526640892029,-0.7655491232872009
1646037698707817000,4.15681689453125,-0.18256807327270508,0.8485663533210754,-0.7734904289245605
1646037698717814500,4.166814453125,-0.18012462556362152,0.7612126469612122,-0.7753229737281799
1646037698727812000,4.17681201171875,-0.19356364011764526,0.7135651111602783,-0.7655491232872009
1646037698737809700,4.1868095703125,-0.23388075828552246,0.7184520363807678,-0.7667708992958069
1646037698747807200,4.19680712890625,-0.3132932484149933,0.7569366097450256,-0.7869294285774231
1646037698757804800,4.2068046875,-0.419583797454834,0.843068540096283,-0.8089206218719482
1646037698767802400,4.21680224609375,-0.5380916595458984,0.9670742154121399,-0.8162509799003601
1646037698777800000,4.226800048828125,-0.6956948637962341,1.1436142921447754,-0.7417253851890564
1646037698787797500,4.236797607421875,-0.7757182121276855,1.2028682231903076,-0.6189414858818054
1646037698797795000,4.246795166015625,-0.845967710018158,1.2010356187820435,-0.4521752893924713
1646037698807792600,4.256792724609375,-0.9088868498802185,1.1405599117279053,-0.2512006163597107
1646037698817790200,4.266790283203125,-0.9650864005088806,1.0232738256454468,-0.05572373792529106
1646037698827787800,4.276787841796875,-1.0249513387680054,0.8491772413253784,0.10004689544439316
1646037698837785300,4.286785400390625,-1.084205150604248,0.6494242548942566,0.21244610846042633
1646037698847783000,4.296782958984375,-1.1397939920425415,0.455169141292572,0.2790304124355316
1646037698857780500,4.306780517578125,-1.187441349029541,0.2804616689682007,0.2888042628765106
1646037698867777800,4.31677783203125,-1.2253150939941406,0.1686733365058899,0.2295503169298172
1646037698877775400,4.326775390625,-1.2631887197494507,0.13568662106990814,0.10920988023281097
1646037698887773000,4.33677294921875,-1.3071709871292114,0.19249707460403442,-0.04472816362977028
1646037698897770500,4.3467705078125,-1.388416051864624,0.31222665309906006,-0.25303322076797485
1646037698907768000,4.35676806640625,-1.4855437278747559,0.47349509596824646,-0.5932851433753967
1646037698917765600,4.366765625,-1.4953174591064453,0.6347634792327881,-0.758829653263092
1646037698927763200,4.37676318359375,-1.4892088174819946,0.8186339735984802,-0.88100266456604
1646037698937760800,4.3867607421875,-1.4879870414733887,0.9469156265258789,-0.9817954897880554
1646037698947758300,4.39675830078125,-1.4989826679229736,0.9817349910736084,-1.062429666519165
1646037698957756000,4.406755859375,-1.4989826679229736,0.9438613057136536,-1.0893077850341797
1646037698967753500,4.41675341796875,-1.4806567430496216,0.8394033908843994,-1.0459362268447876
1646037698977751000,4.4267509765625,-1.452556848526001,0.7019586563110352,-0.9451435804367065
1646037698987748600,4.43674853515625,-1.4152941703796387,0.5626813769340515,-0.7948706746101379
1646037698997746200,4.44674609375,-1.3810856342315674,0.42951279878616333,-0.6250501871109009
1646037699007743700,4.45674365234375,-1.349320650100708,0.3085614740848541,-0.4668360650539398
1646037699017741300,4.4667412109375,-1.3151122331619263,0.19555141031742096,-0.3519933819770813
1646037699027739000,4.47673876953125,-1.2729625701904297,0.09414777159690857,-0.2915177345275879
1646037699037736400,4.486736328125,-1.2320345640182495,0.012291830033063889,-0.3012915551662445
1646037699047734000,4.496734130859375,-1.1733914613723755,-0.025581814348697662,-0.4130798876285553
1646037699057731600,4.506731689453125,-1.1214679479599,0.008626638911664486,-0.529755175113678
1646037699067729200,4.516729248046875,-1.0579379796981812,0.07887614518404007,-0.6659780740737915
1646037699077726700,4.526726806640625,-0.9962406158447266,0.17661458253860474,-0.8119749426841736
1646037699087724300,4.536724365234375,-0.9369866251945496,0.2945115566253662,-0.9536956548690796
1646037699097721900,4.546721923828125,-0.8826196193695068,0.4124085605144501,-1.0777013301849365
1646037699107719400,4.556719482421875,-0.8331395983695984,0.5248078107833862,-1.175439715385437
1646037699117717000,4.566717041015625,-0.7952659130096436,0.6158267259597778,-1.2432457208633423
1646037699127714600,4.576714599609375,-0.7659444212913513,0.6799675226211548,-1.2817301750183105
1646037699137712000,4.586712158203125,-0.7445641160011292,0.7147868871688843,-1.3049430847167969
1646037699147709700,4.596709716796875,-0.7274599075317383,0.7263932824134827,-1.31654953956604
1646037699157707300,4.606707275390625,-0.7073013186454773,0.7428866624832153,-1.3196039199829102
1646037699167704600,4.61670458984375,-0.6883645057678223,0.7667104005813599,-1.3269343376159668
1646037699177702400,4.626702392578125,-0.6669842004776001,0.8045840263366699,-1.363586187362671
1646037699187700000,4.636699951171875,-0.6401061415672302,0.8363490700721741,-1.4002381563186646
1646037699197697300,4.646697265625,-0.5979564189910889,0.8717792630195618,-1.4515507221221924
1646037699207694800,4.65669482421875,-0.5454220771789551,0.8894942998886108,-1.5266872644424438
1646037699217692400,4.6666923828125,-0.48128119111061096,0.8998790383338928,-1.6006019115447998
1646037699227690000,4.67668994140625,-0.400036096572876,0.9151506423950195,-1.659855842590332
1646037699237687600,4.6866875,-0.31023892760276794,0.9096528887748718,-1.7215532064437866
1646037699247685000,4.69668505859375,-0.21860912442207336,0.8998790383338928,-1.7759202718734741
1646037699257682700,4.7066826171875,-0.12697933614253998,0.8931595087051392,-1.8156265020370483
1646037699267680300,4.71668017578125,-0.04817771911621094,0.8974355459213257,-1.838228464126587
1646037699277677800,4.726677734375,0.011687073856592178,0.9145398139953613,-1.8541109561920166
1646037699287675400,4.73667529296875,0.05872369930148125,0.9328657984733582,-1.8724370002746582
1646037699297673000,4.7466728515625,0.10820378363132477,0.9573003649711609,-1.8932064771652222
1646037699307670500,4.75667041015625,0.15951646864414215,0.9945631623268127,-1.918251872062683
1646037699317668000,4.766668212890625,0.24015067517757416,1.0513736009597778,-1.9518494606018066
1646037699327665700,4.776665771484375,0.2987937331199646,1.0831385850906372,-1.964066743850708
1646037699337663200,4.786663330078125,0.35743680596351624,1.1081840991973877,-1.9658994674682617
1646037699347660800,4.796660888671875,0.4032517075538635,1.1228448152542114,-1.9506276845932007
1646037699357658400,4.806658447265625,0.43196237087249756,1.1344512701034546,-1.935966968536377
1646037699367656000,4.816656005859375,0.42707544565200806,1.1417815685272217,-1.9365779161453247
1646037699377653500,4.826653564453125,0.41241466999053955,1.142392635345459,-1.975062370300293
1646037699387651000,4.836651123046875,0.42157766222953796,1.1491121053695679,-2.050809621810913
1646037699397648600,4.846648681640625,0.4667816758155823,1.1485012769699097,-2.150991439819336
1646037699407646000,4.85664599609375,0.5535245537757874,1.1729358434677124,-2.268888473510742
1646037699417643500,4.8666435546875,0.673254132270813,1.2034790515899658,-2.4173288345336914
1646037699427641000,4.87664111328125,0.7997032403945923,1.2101986408233643,-2.5718777179718018
1646037699437638700,4.886638671875,0.938369631767273,1.180266261100769,-2.7221505641937256
1646037699447636200,4.89663623046875,1.101470708847046,1.1100167036056519,-2.9194600582122803
1646037699457633800,4.9066337890625,1.1814939975738525,1.0568714141845703,-2.9390077590942383
1646037699467631400,4.91663134765625,1.2554086446762085,0.9548569321632385,-2.905410051345825
1646037699477629000,4.92662890625,1.2810651063919067,0.8259643316268921,-2.8559298515319824
1646037699487626500,4.93662646484375,1.2303632497787476,0.7147868871688843,-2.775906801223755
1646037699497624000,4.9466240234375,1.0971945524215698,0.6665285229682922,-2.6580097675323486
1646037699507621600,4.95662158203125,0.9163784980773926,0.6970717906951904,-2.522397756576538
1646037699517619200,4.966619140625,0.7428927421569824,0.7887015342712402,-2.385563611984253
1646037699527616800,4.97661669921875,0.624384880065918,0.9059876799583435,-2.265834331512451
1646037699537614300,4.9866142578125,0.5822352170944214,1.0214412212371826,-2.165652275085449
1646037699547612000,4.99661181640625,0.6005611419677734,1.1112383604049683,-2.0911266803741455
1646037699557609500,5.006609375,0.6506521105766296,1.1582750082015991,-2.04531192779541
1646037699567607000,5.01660693359375,0.6995213627815247,1.1894291639328003,-2.000107765197754
1646037699577604600,5.0266044921875,0.7612187266349792,1.195537805557251,-1.9231387376785278
1646037699587602000,5.036601806640625,0.7789338231086731,1.1735466718673706,-1.8822108507156372
1646037699597599700,5.046599853515625,0.7746577858924866,1.1442251205444336,-1.8516676425933838
1646037699607597300,5.056597412109375,0.7538883686065674,1.1301751136779785,-1.8321198225021362
1646037699617595000,5.066594970703125,0.7227342128753662,1.1387273073196411,-1.831508994102478
1646037699627592400,5.076592529296875,0.6940235495567322,1.1552207469940186,-1.8528892993927002
1646037699637590000,5.086590087890625,0.6708106398582458,1.1961486339569092,-1.8864868879318237
1646037699647587600,5.096587646484375,0.6610367894172668,1.2590677738189697,-1.926193118095398
1646037699657585200,5.106585205078125,0.6701998114585876,1.339091181755066,-1.9646775722503662
1646037699667582700,5.116582763671875,0.6897475123405457,1.4215580224990845,-2.000718593597412
1646037699677580300,5.126580322265625,0.7227342128753662,1.4911965131759644,-2.0239315032958984
1646037699687577900,5.136577880859375,0.7569426894187927,1.5449527502059937,-2.0184338092803955
1646037699697575400,5.146575439453125,0.7819881439208984,1.5699981451034546,-1.98239266872406
1646037699707573000,5.156572998046875,0.8009250164031982,1.5590026378631592,-1.9121432304382324
1646037699717570600,5.166570556640625,0.814974844455719,1.4991377592086792,-1.7624812126159668
1646037699727568100,5.176568115234375,0.8143640160560608,1.4325534105300903,-1.6537472009658813
1646037699737565700,5.186565673828125,0.8052010536193848,1.3372585773468018,-1.5547871589660645
1646037699747563300,5.196563232421875,0.8021467328071594,1.2389092445373535,-1.4619355201721191
1646037699757560800,5.206560791015625,0.8052010536193848,1.1656054258346558,-1.375192642211914
1646037699767558400,5.216558349609375,0.8131422996520996,1.1179578304290771,-1.3043322563171387
1646037699777556000,5.226555908203125,0.8210834860801697,1.0892473459243774,-1.234082818031311
1646037699787553500,5.236553466796875,0.8363551497459412,1.0855820178985596,-1.1791049242019653
1646037699797551000,5.246551025390625,0.8571245670318604,1.0984102487564087,-1.1479507684707642
1646037699807548700,5.256548583984375,0.882780909538269,1.1246775388717651,-1.1332900524139404
1646037699817546200,5.266546142578125,0.9108807444572449,1.1454468965530396,-1.1186292171478271
1646037699827543800,5.276543701171875,0.9359261989593506,1.142392635345459,-1.1009142398834229
1646037699837541000,5.286541015625,0.9493652582168579,1.11062753200531,-1.0746469497680664
1646037699847538700,5.29653857421875,0.9542521238327026,1.0306042432785034,-0.9995105862617493
1646037699857536300,5.306536376953125,0.9640259742736816,0.9652416110038757,-0.9243741631507874
1646037699867533800,5.316533935546875,0.9841845631599426,0.9053768515586853,-0.8443507552146912
1646037699877531400,5.326531494140625,1.004343032836914,0.871168315410614,-0.7569970488548279
1646037699887529000,5.336529052734375,1.016560435295105,0.8497880697250366,-0.68063884973526
1646037699897526500,5.346526611328125,1.0177820920944214,0.8351272940635681,-0.6091676354408264
1646037699907524000,5.356524169921875,1.0116734504699707,0.8247426152229309,-0.5376964211463928
1646037699917521700,5.366521728515625,0.9933475255966187,0.8051949739456177,-0.4723338186740875
1646037699927519200,5.376519287109375,0.9768542051315308,0.7813711762428284,-0.40941470861434937
1646037699937516800,5.386516845703125,0.957917332649231,0.7606017589569092,-0.35443681478500366
1646037699947514400,5.396514404296875,0.9292066693305969,0.7410540580749512,-0.3012915551662445
1646037699957512000,5.406511962890625,0.8968307971954346,0.7312802076339722,-0.24753543734550476
1646037699967509200,5.41650927734375,0.8650658130645752,0.7392215132713318,-0.1907249540090561
1646037699977506800,5.4265068359375,0.8333008289337158,0.7441083788871765,-0.1241406500339508
1646037699987504400,5.43650439453125,0.7557209730148315,0.7190629243850708,-0.024569610133767128
1646037699997502000,5.446501953125,0.6653128862380981,0.7123433947563171,0.014525764621794224
1646037700007499500,5.45649951171875,0.5474159121513367,0.6860761642456055,0.00841711275279522
1646037700017497000,5.4664970703125,0.4392927587032318,0.635985255241394,-0.04472816362977028
1646037700027494700,5.47649462890625,0.37148669362068176,0.5724552869796753,-0.125362366437912
1646037700037492200,5.4864921875,0.35682591795921326,0.5156447887420654,-0.19927707314491272
1646037700047489800,5.49648974609375,0.32994788885116577,0.4612777829170227,-0.2915177345275879
1646037700057487400,5.5064873046875,0.3055132329463959,0.43867579102516174,-0.3477173149585724
1646037700067485000,5.51648486328125,0.26947221159935,0.4313454031944275,-0.37031933665275574
1646037700077482500,5.526482421875,0.20655308663845062,0.42951279878616333,-0.3978082835674286
1646037700087480000,5.53647998046875,0.1271405965089798,0.4405083656311035,-0.4167450964450836
1646037700097477600,5.5464775390625,0.056891102343797684,0.4808254837989807,-0.3831475079059601
1646037700107475200,5.55647509765625,-0.015801861882209778,0.5303055644035339,-0.2957938015460968
1646037700117472800,5.56647265625,-0.14408355951309204,0.5358033180236816,-0.08260180801153183
1646037700127470300,5.57647021484375,-0.23876766860485077,0.47899287939071655,0.11470766365528107
1646037700137468000,5.586468017578125,-0.3334517776966095,0.3714805841445923,0.3462255895137787
1646037700147465500,5.596465576171875,-0.4281359016895294,0.23586851358413696,0.5899608135223389
1646037700157463000,5.606463134765625,-0.5142678618431091,0.05505239963531494,0.8233113288879395
1646037700167460600,5.616460693359375,-0.5918477773666382,-0.150809183716774,1.0346708297729492
1646037700177458200,5.626458251953125,-0.6645407676696777,-0.3731641471385956,1.2124325037002563
1646037700187455500,5.63645556640625,-0.7354010939598083,-0.6138450503349304,1.355375051498413
1646037700197453000,5.646453125,-0.8087049722671509,-0.8453629612922668,1.4806022644042969
1646037700207450600,5.65645068359375,-0.8697915077209473,-1.0274007320404053,1.6058297157287598
1646037700217448200,5.6664482421875,-0.9058325290679932,-1.0958178043365479,1.7023464441299438
1646037700227445800,5.67644580078125,-0.9192715287208557,-1.0438941717147827,1.7298352718353271
1646037700237443300,5.686443359375,-0.8930043578147888,-0.9595947861671448,1.7011247873306274
1646037700247441000,5.69644091796875,-0.7250164151191711,-0.9284406900405884,1.5038151741027832
1646037700257438500,5.7064384765625,-0.59917813539505,-0.9736446738243103,1.2692428827285767
1646037700267436000,5.71643603515625,-0.49166589975357056,-1.1000937223434448,1.012068748474121
1646037700277433600,5.72643359375,-0.4085882306098938,-1.2240993976593018,0.7689443230628967
1646037700287431200,5.73643115234375,-0.3829318881034851,-1.2980141639709473,0.5679696798324585
1646037700297428700,5.7464287109375,-0.4232490062713623,-1.3560463190078735,0.4115881621837616
1646037700307426300,5.75642626953125,-0.5222091674804688,-1.3798701763153076,0.31140628457069397
1646037700317423900,5.766423828125,-0.6535451412200928,-1.3523811101913452,0.25276321172714233
1646037700327421400,5.77642138671875,-0.7934333682060242,-1.2815207242965698,0.2087809145450592
1646037700337419000,5.7864189453125,-0.9259911179542542,-1.16789972782135,0.19167667627334595
1646037700347416600,5.79641650390625,-1.0475531816482544,-1.0322877168655396,0.19106583297252655
1646037700357414100,5.8064140625,-1.152622103691101,-0.8930104374885559,0.19106583297252655
1646037700367411700,5.81641162109375,-1.2295910120010376,-0.7494571805000305,0.1892332285642624
1646037700377409300,5.8264091796875,-1.283347249031067,-0.6150667667388916,0.1837354451417923
1646037700387406800,5.83640673828125,-1.338325023651123,-0.4635722041130066,0.16724207997322083
1646037700397404400,5.846404296875,-1.3627597093582153,-0.39515528082847595,0.1580791026353836
1646037700407401700,5.856401611328125,-1.3859726190567017,-0.34567520022392273,0.15563564002513885
1646037700417399300,5.8663994140625,-1.409185528755188,-0.31329935789108276,0.14769437909126282
1646037700427396900,5.87639697265625,-1.4360636472702026,-0.29924944043159485,0.12570324540138245
1646037700437394400,5.88639453125,-1.4574438333511353,-0.2919190526008606,0.10676641762256622
1646037700447392000,5.89639208984375,-1.4678285121917725,-0.2772583067417145,0.0982142984867096
1646037700457389600,5.9063896484375,-1.4684394598007202,-0.2656518518924713,0.08905132114887238
1646037700467387100,5.91638720703125,-1.4617198705673218,-0.26931706070899963,0.07377969473600388
1646037700477384700,5.926384765625,-1.4427831172943115,-0.2461041659116745,0.077444888651371
1646037700487382300,5.93638232421875,-1.3957464694976807,-0.20639793574810028,0.08660786598920822
1646037700497379800,5.9463798828125,-1.3254969120025635,-0.17829813063144684,0.08599700033664703
1646037700507377400,5.95637744140625,-1.2515822649002075,-0.14225707948207855,0.05911892652511597
1646037700517375000,5.966375,-1.1416264772415161,-0.10743775963783264,0.002919325139373541
1646037700527372500,5.97637255859375,-1.0622140169143677,-0.07506189495325089,-0.0233478806912899
1646037700537370000,5.9863701171875,-0.9766928553581238,-0.030468735843896866,-0.04778248816728592
1646037700547367700,5.99636767578125,-0.894836962223053,0.028174325823783875,-0.08687786757946014
1646037700557365200,6.006365234375,-0.816646158695221,0.09536951035261154,-0.1345253586769104
1646037700567362800,6.01636279296875,-0.732346773147583,0.16134296357631683,-0.18217284977436066
1646037700577360400,6.0263603515625,-0.6443821787834167,0.2334250509738922,-0.23470726609230042
1646037700587358000,6.03635791015625,-0.5606936812400818,0.29145723581314087,-0.29457205533981323
1646037700597355500,6.04635546875,-0.4739508032798767,0.3299417793750763,-0.3464955985546112
1646037700607353000,6.05635302734375,-0.38598620891571045,0.35926327109336853,-0.37764972448349
1646037700617350700,6.0663505859375,-0.2919129729270935,0.37942183017730713,-0.38986703753471375
1646037700627348200,6.07634814453125,-0.20028316974639893,0.3861413598060608,-0.3984191417694092
1646037700637345800,6.086345703125,-0.10743165016174316,0.37392404675483704,-0.39475393295288086
1646037700647343400,6.09634326171875,0.02879129908978939,0.3305526077747345,-0.3623780906200409
1646037700657341000,6.1063408203125,0.08254744112491608,0.28595948219299316,-0.3672650158405304
1646037700667338500,6.11633837890625,0.11492329835891724,0.23220331966876984,-0.4136907756328583
1646037700677336000,6.126336181640625,0.15951646864414215,0.1937188059091568,-0.49004891514778137
1646037700687333600,6.136333740234375,0.2383180856704712,0.1888318955898285,-0.57801353931427
1646037700697331200,6.146331298828125,0.31773054599761963,0.20043832063674927,-0.6665889620780945
1646037700707328800,6.156328857421875,0.38736921548843384,0.22304034233093262,-0.7466123104095459
1646037700717326300,6.166326416015625,0.4698359966278076,0.2603031396865845,-0.8406856060028076
1646037700727324000,6.176323974609375,0.5852895379066467,0.3348286747932434,-0.9384239912033081
1646037700737321500,6.186321533203125,0.7166255712509155,0.425847589969635,-1.014782190322876
1646037700747319000,6.196319091796875,0.8436855673789978,0.5394685864448547,-1.0447145700454712
1646037700757316600,6.206316650390625,0.9450891613960266,0.6439265012741089,-1.0129495859146118
1646037700767314000,6.21631396484375,1.0080082416534424,0.7147868871688843,-0.930482804775238
1646037700777311500,6.2263115234375,1.0281668901443481,0.7233389616012573,-0.813807487487793
1646037700787309000,6.23630908203125,0.9805193543434143,0.6518677473068237,-0.6403217911720276
1646037700797306600,6.246306640625,0.9389805197715759,0.5645140409469604,-0.5334203243255615
1646037700807304200,6.25630419921875,0.9133241772651672,0.44906049966812134,-0.41063645482063293
1646037700817301800,6.2663017578125,0.9127132892608643,0.31650272011756897,-0.2621961832046509
1646037700827299300,6.27629931640625,0.9267631769180298,0.17111678421497345,-0.10337123274803162
1646037700837297000,6.286296875,0.9456999897956848,0.039780765771865845,0.04629075527191162
1646037700847294500,6.29629443359375,0.967080295085907,-0.056735944002866745,0.14952698349952698
1646037700857292000,6.3062919921875,0.9860171675682068,-0.1398136168718338,0.19534187018871307
1646037700867289600,6.31628955078125,0.99762362241745,-0.18196332454681396,0.1935092806816101
1646037700877287200,6.326287109375,0.9939583539962769,-0.19112630188465118,0.1428074687719345
1646037700887284700,6.33628466796875,0.9737998247146606,-0.160583034157753,0.057286329567432404
1646037700897282300,6.3462822265625,0.9456999897956848,-0.0946095883846283,-0.04656076058745384
1646037700907280000,6.35627978515625,0.9188219308853149,-0.001758070196956396,-0.1552947759628296
1646037700917277400,6.36627734375,0.9047720432281494,0.18638843297958374,-0.2970154881477356
1646037700927275000,6.37627490234375,0.9096589684486389,0.3048962652683258,-0.3813149034976959
1646037700937272600,6.3862724609375,0.9218763113021851,0.40691077709198,-0.4362927973270416
1646037700947270100,6.396270263671875,0.9359261989593506,0.4869341254234314,-0.46011650562286377
1646037700957267700,6.406267822265625,0.9469217658042908,0.5467989444732666,-0.46133825182914734
1646037700967265300,6.416265380859375,0.9450891613960266,0.579174816608429,-0.458894819021225
1646037700977262800,6.426262939453125,0.9353153109550476,0.587726891040802,-0.44667747616767883
1646037700987260400,6.436260498046875,0.9163784980773926,0.5822291374206543,-0.42590808868408203
1646037700997258000,6.446258056640625,0.8919439315795898,0.5614596605300903,-0.397197425365448
1646037701007255600,6.456255615234375,0.863233208656311,0.5364142060279846,-0.35321512818336487
1646037701017252900,6.4662529296875,0.8473507165908813,0.48387980461120605,-0.3012915551662445
1646037701027250400,6.47625048828125,0.844296395778656,0.416684627532959,-0.23837244510650635
1646037701037248000,6.486248046875,0.8485724329948425,0.34276992082595825,-0.1693446785211563
1646037701047245600,6.49624560546875,0.8485724329948425,0.264579176902771,-0.09481911361217499
1646037701057243100,6.5062431640625,0.8424637913703918,0.1479039192199707,0.018190955743193626
1646037701067240700,6.51624072265625,0.8271921873092651,0.092315174639225,0.08477526903152466
1646037701077238300,6.52623828125,0.8137531280517578,0.05260893702507019,0.13730967044830322
1646037701087235800,6.53623583984375,0.7935945987701416,0.022676540538668633,0.17762678861618042
1646037701097233400,6.5462333984375,0.7636621594429016,-0.001758070196956396,0.19656361639499664
1646037701107231000,6.55623095703125,0.7367841005325317,-0.04451863840222359,0.19106583297252655
1646037701117228500,6.566228515625,0.7105169296264648,-0.09522045403718948,0.1684638112783432
1646037701127226000,6.57622607421875,0.6848605871200562,-0.150809183716774,0.12936842441558838
1646037701137223700,6.5862236328125,0.6573716402053833,-0.2057870626449585,0.08172094076871872
1646037701147221200,6.59622119140625,0.6231632232666016,-0.25404539704322815,0.031019126996397972
1646037701157218800,6.60621875,0.5822352170944214,-0.28397780656814575,-0.011741440743207932
1646037701167216400,6.61621630859375,0.5406963229179382,-0.2864212691783905,-0.034343454986810684
1646037701177214000,6.6262138671875,0.4808315634727478,-0.26443010568618774,-0.04167383909225464
1646037701187211500,6.63621142578125,0.38248226046562195,-0.23449772596359253,-0.03678691387176514
1646037701197209000,6.646208984375,0.32628268003463745,-0.2100631296634674,-0.016017498448491096
1646037701207206400,6.656206298828125,0.26947221159935,-0.19845667481422424,0.010249707847833633
1646037701217204000,6.666203857421875,0.2181595265865326,-0.19784581661224365,0.03957124054431915
1646037701227201500,6.676201416015625,0.1772315502166748,-0.19723495841026306,0.08111007511615753
1646037701237199000,6.68619921875,0.13752532005310059,-0.18685023486614227,0.12448150664567947
1646037701247196700,6.69619677734375,0.08804522454738617,-0.17157861590385437,0.16724207997322083
1646037701257194200,6.7061943359375,0.024515243247151375,-0.14836572110652924,0.20206139981746674
1646037701267191800,6.71619189453125,-0.045734260231256485,-0.10316170006990433,0.2295503169298172
1646037701277189400,6.726189453125,-0.1312553882598877,-0.048183828592300415,0.23688070476055145
1646037701287187000,6.73618701171875,-0.23998941481113434,-0.0035906657576560974,0.21488957107067108
1646037701297184500,6.7461845703125,-0.3236779570579529,0.031228652223944664,0.1788485050201416
1646037701307182000,6.75618212890625,-0.36032986640930176,0.0031288519967347383,0.11104246973991394
1646037701317179600,6.7661796875,-0.29985418915748596,-0.11171381175518036,0.04262556508183479
1646037701327177200,6.77617724609375,-0.2265503704547882,-0.20884138345718384,0.07011450082063675
1646037701337174800,6.7861748046875,-0.2015049010515213,-0.2558780014514923,0.12142718583345413
1646037701347172400,6.79617236328125,-0.25465017557144165,-0.2650409936904907,0.16174429655075073
1646037701357170000,6.806169921875,-0.37621235847473145,-0.23266513645648956,0.18678976595401764
1646037701367167500,6.81616748046875,-0.5393133759498596,-0.15142005681991577,0.21794389188289642
1646037701377165000,6.8261650390625,-0.7066904306411743,-0.0487946942448616,0.26253706216812134
1646037701387162600,6.83616259765625,-0.8655154705047607,0.04100249707698822,0.34256038069725037
1646037701397160200,6.84616015625,-0.9937971234321594,0.08620652556419373,0.45923566818237305
1646037701407157800,6.85615771484375,-1.0835943222045898,0.06665883958339691,0.5985129475593567
1646037701417155300,6.8661552734375,-1.1440699100494385,-0.01153191365301609,0.734735906124115
1646037701427152600,6.876152587890625,-1.1959935426712036,-0.1294289082288742,0.8355286121368408
1646037701437150200,6.886150146484375,-1.248528003692627,-0.25954321026802063,0.9021129608154297
1646037701447147800,6.896147705078125,-1.293731927871704,-0.38965749740600586,0.9473170042037964
1646037701457145300,6.906145263671875,-1.322442650794983,-0.5826908946037292,0.9650321006774902
1646037701467143000,6.916142822265625,-1.3206099271774292,-0.6798185110092163,0.9332671165466309
1646037701477140500,6.926140380859375,-1.3212209939956665,-0.7384615540504456,0.8593524098396301
1646037701487138000,6.936137939453125,-1.3316055536270142,-0.734796404838562,0.7359576225280762
1646037701497135600,6.946135498046875,-1.3456555604934692,-0.6847054362297058,0.572245717048645
1646037701507133200,6.95613330078125,-1.3664249181747437,-0.5661975741386414,0.401814341545105
1646037701517130800,6.966130859375,-1.3939138650894165,-0.44524624943733215,0.2350481152534485
1646037701527128300,6.97612841796875,-1.4030767679214478,-0.34934037923812866,0.0829426720738411
1646037701537126000,6.9861259765625,-1.36764657497406,-0.21922610700130463,-0.02945653349161148
1646037701547123500,6.99612353515625,-1.3071709871292114,-0.07811622321605682,-0.0789366140961647
1646037701557121000,7.00612109375,-1.264410376548767,0.03550470992922783,-0.0844344049692154
1646037701567118600,7.01611865234375,-1.255858302116394,0.13446487486362457,-0.0691627711057663
1646037701577116200,7.0261162109375,-1.2741843461990356,0.19982744753360748,-0.0636649876832962
1646037701587113700,7.03611376953125,-1.350542426109314,0.24197715520858765,-0.09054306149482727
1646037701597111300,7.046111328125,-1.4061311483383179,0.24197715520858765,-0.12230805307626724
1646037701607108900,7.05610888671875,-1.4378961324691772,0.22548379004001617,-0.15162958204746246
1646037701617106400,7.0661064453125,-1.4336200952529907,0.19494053721427917,-0.16323602199554443
1646037701627104000,7.07610400390625,-1.3988007307052612,0.1582886129617691,-0.154683917760849
1646037701637101600,7.0861015625,-1.341990351676941,0.11186286062002182,-0.12230805307626724
1646037701647099100,7.09609912109375,-1.2729625701904297,0.07154576480388641,-0.06733017414808273
1646037701657096700,7.1060966796875,-1.1953827142715454,0.0471111498773098,-0.0019675970543175936
1646037701667094300,7.11609423828125,-1.1098616123199463,0.02634173259139061,0.05606460198760033
1646037701677091800,7.126091796875,-1.020064353942871,0.004350582137703896,0.08905132114887238
1646037701687089400,7.13608935546875,-0.9320997595787048,0.016567885875701904,0.09332738816738129
1646037701697087000,7.1460869140625,-0.845967710018158,0.051387205719947815,0.06217325106263161
1646037701707084500,7.15608447265625,-0.7274599075317383,0.10819767415523529,-0.06488671898841858
1646037701717082000,7.16608203125,-0.6413278579711914,0.15523429214954376,-0.1803402602672577
1646037701727079700,7.17607958984375,-0.5551958680152893,0.20288178324699402,-0.30312418937683105
1646037701737077200,7.1860771484375,-0.4629552364349365,0.23525764048099518,-0.42590808868408203
1646037701747074800,7.19607470703125,-0.3731580078601837,0.26152485609054565,-0.529144287109375
1646037701757072400,7.206072265625,-0.29496729373931885,0.2810725271701813,-0.5969502925872803
1646037701767069700,7.216069580078125,-0.23143728077411652,0.29756587743759155,-0.6360456943511963
1646037701777067300,7.2260673828125,-0.16912904381752014,0.31772446632385254,-0.6458196043968201
1646037701787064800,7.23606494140625,-0.09949040412902832,0.3256657123565674,-0.6391000151634216
1646037701797062400,7.2460625,-0.03534954786300659,0.3238331079483032,-0.6250501871109009
1646037701807060000,7.25606005859375,0.035510819405317307,0.32810917496681213,-0.6152762770652771
1646037701817057500,7.2660576171875,0.11797762662172318,0.33238521218299866,-0.5981720685958862
1646037701827055000,7.27605517578125,0.2028878927230835,0.32200053334236145,-0.5841221809387207
1646037701837052700,7.286052734375,0.28046777844429016,0.30306369066238403,-0.5743483304977417
1646037701847050200,7.29605029296875,0.3488846719264984,0.2890138030052185,-0.5700722932815552
1646037701857047800,7.3060478515625,0.43807101249694824,0.26641178131103516,-0.5596875548362732
1646037701867045400,7.31604541015625,0.4844967722892761,0.25114014744758606,-0.5413616299629211
1646037701877043000,7.32604296875,0.5187051892280579,0.23281417787075043,-0.5157052874565125
1646037701887040500,7.33604052734375,0.5498594045639038,0.21082302927970886,-0.487605482339859
1646037701897071400,7.3460712890625,0.5962851047515869,0.19127534329891205,-0.46500346064567566
1646037701907102500,7.3561025390625,0.6506521105766296,0.19127534329891205,-0.45461875200271606
1646037701917133300,7.36613330078125,0.7111278176307678,0.2041035145521164,-0.458283931016922
1646037701927164200,7.3761640625,0.7691599726676941,0.22975985705852509,-0.47660988569259644
1646037701937195000,7.386195068359375,0.8192509412765503,0.2700769603252411,-0.5224248170852661
1646037701947225900,7.396225830078125,0.8510159254074097,0.326276570558548,-0.5945069193840027
1646037701957256700,7.406256591796875,0.84307461977005,0.42279326915740967,-0.738671064376831
1646037701967287600,7.41628759765625,0.8204726576805115,0.4722733497619629,-0.8651201725006104
1646037701977318700,7.426318603515625,0.8314682841300964,0.5083144307136536,-0.9995105862617493
1646037701987349500,7.436349609375,0.893165647983551,0.5406902432441711,-1.1131315231323242
1646037701997380400,7.44638037109375,0.9982344508171082,0.5669574737548828,-1.2102590799331665
1646037702007411200,7.4564111328125,1.1246836185455322,0.5920029282569885,-1.2878389358520508
1646037702017442000,7.466442138671875,1.244413137435913,0.635985255241394,-1.347092866897583
1646037702027473000,7.476472900390625,1.3164951801300049,0.7123433947563171,-1.386188268661499
1646037702037504000,7.48650390625,1.3592559099197388,0.8070275187492371,-1.404514193534851
1646037702047534800,7.496534912109375,1.3788034915924072,0.8864399790763855,-1.3874099254608154
1646037702057565700,7.506565673828125,1.3897991180419922,0.9292005896568298,-1.3122735023498535
1646037702067596500,7.516596435546875,1.40629243850708,0.9285897016525269,-1.1882679462432861
1646037702077627400,7.52662744140625,1.4307270050048828,0.8748335838317871,-1.0129495859146118
1646037702087658200,7.536658203125,1.482650637626648,0.8284077644348145,-0.7899837493896484
1646037702097689300,7.546689453125,1.5687825679779053,0.8497880697250366,-0.5132617950439453
1646037702107720200,7.55672021484375,1.5248003005981445,0.8778879046440125,-0.47538813948631287
1646037702117751000,7.5667509765625,1.3836904764175415,0.9053768515586853,-0.5499137043952942
1646037702127782000,7.576781982421875,1.223032832145691,0.9524134397506714,-0.6751410961151123
1646037702137812700,7.586812744140625,1.097805380821228,1.018386960029602,-0.7918163537979126
1646037702147843600,7.596843505859375,1.0098408460617065,1.0764191150665283,-0.871839702129364
1646037702157874400,7.60687451171875,0.9524195790290833,1.1069624423980713,-0.9029938578605652
1646037702167905300,7.6169052734375,0.9102698564529419,1.0971884727478027,-0.8852787613868713
1646037702177902800,7.62690283203125,0.8650658130645752,1.05076265335083,-0.8364095687866211
1646037702187900400,7.636900390625,0.8064227104187012,0.9786806702613831,-0.7832642197608948
1646037702197864700,7.64686474609375,0.7312862873077393,0.9041550755500793,-0.749666690826416
1646037702207828700,7.656828857421875,0.6414891481399536,0.8565076589584351,-0.7405036687850952
1646037702217793000,7.66679296875,0.5498594045639038,0.8503988981246948,-0.7728795409202576
1646037702227757300,7.67675732421875,0.4643382132053375,0.8882725834846497,-0.8382421135902405
1646037702237721600,7.6867216796875,0.39164525270462036,0.9524134397506714,-0.9335371255874634
1646037702247685600,7.696685546875,0.34216517210006714,1.0293824672698975,-1.0434927940368652
1646037702257650000,7.70664990234375,0.3134545087814331,1.142392635345459,-1.1760505437850952
1646037702267614200,7.7166142578125,0.31101104617118835,1.185763955116272,-1.2188111543655396
1646037702277578500,7.72657861328125,0.30184805393218994,1.2083659172058105,-1.2114808559417725
1646037702287542800,7.736542724609375,0.2926850914955139,1.2242485284805298,-1.154670238494873
1646037702297506800,7.7465068359375,0.2725265324115753,1.2266918420791626,-1.0642621517181396
1646037702307471000,7.75647119140625,0.2383180856704712,1.2101986408233643,-0.9457544088363647
1646037702317435400,7.766435302734375,0.1973901093006134,1.1839313507080078,-0.8015902042388916
1646037702327399400,7.7763994140625,0.16134905815124512,1.1631619930267334,-0.6543716788291931
1646037702337363700,7.78636376953125,0.12469714134931564,1.135672926902771,-0.5395289659500122
1646037702347328000,7.796327880859375,0.09109955281019211,1.092301607131958,-0.4668360650539398
1646037702357292300,7.806292236328125,0.0660540759563446,1.0550388097763062,-0.41979944705963135
1646037702367256600,7.816256591796875,0.05322590842843056,1.0379345417022705,-0.3874235451221466
1646037702377220900,7.826220947265625,0.039176009595394135,1.0232738256454468,-0.37093019485473633
1646037702387185000,7.836184814453125,0.02329351380467415,1.015332579612732,-0.37093019485473633
1646037702397149200,7.846149169921875,0.018406592309474945,1.0312150716781616,-0.3886452913284302
1646037702407113500,7.856113525390625,0.010465343482792377,1.0611474514007568,-0.41918855905532837
1646037702417077800,7.866077880859375,0.0019132299348711967,1.1045188903808594,-0.46561431884765625
1646037702427042000,7.8760419921875,-0.011525805108249187,1.1491121053695679,-0.5279225707054138
1646037702437006000,7.886006103515625,-0.02679743617773056,1.1912617683410645,-0.6048915982246399
1646037702446970400,7.895970458984375,-0.031684357672929764,1.2266918420791626,-0.6849149465560913
1646037702456934700,7.9059345703125,-0.01824532262980938,1.2352440357208252,-0.7594404816627502
1646037702466899000,7.91589892578125,0.008021881803870201,1.2230267524719238,-0.8199161291122437
1646037702476896500,7.925896484375,0.05322590842843056,1.198592185974121,-0.862676739692688
1646037702486894000,7.93589404296875,0.11003638058900833,1.1588858366012573,-0.88100266456604
1646037702496891600,7.9458916015625,0.16867944598197937,1.1149035692214966,-0.8681744933128357
1646037702506889200,7.95588916015625,0.2181595265865326,1.0703104734420776,-0.8321334719657898
1646037702516886800,7.96588671875,0.2529788613319397,1.0342694520950317,-0.7820425629615784
1646037702526884400,7.97588427734375,0.26947221159935,0.9737936854362488,-0.6867475509643555
1646037702536882000,7.9858818359375,0.27008306980133057,0.911485493183136,-0.6164980530738831
1646037702546879500,7.99587939453125,0.27069392800331116,0.8339055776596069,-0.5383073091506958
1646037702556877000,8.005876953125,0.2725265324115753,0.7447192668914795,-0.458283931016922
1646037702566874600,8.01587451171875,0.26519614458084106,0.6524786353111267,-0.38925617933273315
1646037702576872000,8.025871826171874,0.24503760039806366,0.5645140409469604,-0.3373326063156128
1646037702586869500,8.035869384765626,0.207774817943573,0.4985405504703522,-0.3049567639827728
1646037702596867000,8.0458671875,0.15340781211853027,0.4618886411190033,-0.2909068465232849
1646037702606864600,8.05586474609375,0.08376917243003845,0.45883432030677795,-0.2970154881477356
1646037702616862200,8.0658623046875,0.011687073856592178,0.49365365505218506,-0.3153414726257324
1646037702626859800,8.07585986328125,-0.04817771911621094,0.5461880564689636,-0.33977609872817993
1646037702636857300,8.085857421875,-0.09399261325597763,0.6078854203224182,-0.3611563742160797
1646037702646855000,8.09585498046875,-0.14469443261623383,0.6775240898132324,-0.3825366497039795
1646037702656852500,8.1058525390625,-0.24060025811195374,0.6995152831077576,-0.4375145137310028
1646037702666850000,8.11585009765625,-0.2815282344818115,0.6659176349639893,-0.47050124406814575
1646037702676847600,8.12584765625,-0.29069122672080994,0.6420938968658447,-0.47783163189888
1646037702686845200,8.13584521484375,-0.3267322778701782,0.5956681370735168,-0.5273116827011108
1646037702696842800,8.1458427734375,-0.3529994785785675,0.5718443989753723,-0.5731266140937805
1646037702706840300,8.15584033203125,-0.3829318881034851,0.5865051746368408,-0.597561240196228
1646037702716838000,8.165837890625,-0.4330228269100189,0.636596143245697,-0.632991373538971
1646037702726835500,8.17583544921875,-0.49349847435951233,0.7221172451972961,-0.6690324544906616
1646037702736833000,8.1858330078125,-0.5545850396156311,0.8424577116966248,-0.6800280213356018
1646037702746830600,8.19583056640625,-0.6052867770195007,0.9750154614448547,-0.6574259996414185
1646037702756828200,8.205828125,-0.6608755588531494,1.0623691082000732,-0.5981720685958862
1646037702766825500,8.215825439453125,-0.7109664678573608,1.0984102487564087,-0.4937141239643097
1646037702776823000,8.225822998046874,-0.7592248320579529,1.0886363983154297,-0.3464955985546112
1646037702786820600,8.235820556640626,-0.8435242772102356,0.9603546857833862,-0.0838235393166542
1646037702796818200,8.245818115234375,-0.9162172079086304,0.8106926679611206,0.07683402299880981
1646037702806815700,8.255815673828126,-0.9956297278404236,0.6384286880493164,0.21305698156356812
1646037702816813300,8.265813232421875,-1.0725986957550049,0.4557799994945526,0.31140628457069397
1646037702826811000,8.275810791015624,-1.142848253250122,0.2737421691417694,0.35355597734451294
1646037702836808400,8.285808349609376,-1.2051564455032349,0.09475863724946976,0.3443930149078369
1646037702846806000,8.295805908203125,-1.2454736232757568,-0.042075175791978836,0.29246944189071655
1646037702856803600,8.305803466796876,-1.2674647569656372,-0.11110295355319977,0.19595274329185486
1646037702866801200,8.31580126953125,-1.2802929878234863,-0.12209852784872055,0.06156238913536072
1646037702876798700,8.325798828125,-1.2925102710723877,-0.07139670848846436,-0.09237565845251083
1646037702886796300,8.33579638671875,-1.3138904571533203,0.04955461248755455,-0.2457028329372406
1646037702896793900,8.3457939453125,-1.3316055536270142,0.21632081270217896,-0.38986703753471375
1646037702906791400,8.35579150390625,-1.3193882703781128,0.36353933811187744,-0.5273116827011108
1646037702916789000,8.3657890625,-1.2912884950637817,0.4710516333580017,-0.6549825668334961
1646037702926786600,8.37578662109375,-1.2424193620681763,0.5797856450080872,-0.7655491232872009
1646037702936784100,8.3857841796875,-1.2137086391448975,0.6127723455429077,-0.7918163537979126
1646037702946781700,8.39578173828125,-1.1849979162216187,0.6115506887435913,-0.7930380702018738
1646037702956779300,8.405779296875,-1.153843879699707,0.5913920998573303,-0.7838751077651978
1646037702966776800,8.41577685546875,-1.1226897239685059,0.5675683617591858,-0.7802098989486694
1646037702976774400,8.4257744140625,-1.0823725461959839,0.5358033180236816,-0.788151204586029
1646037702986771700,8.435771728515626,-1.0554945468902588,0.5028166174888611,-0.813807487487793
1646037702996769300,8.445769287109375,-1.0359467267990112,0.455169141292572,-0.8351877927780151
1646037703006766800,8.455766845703126,-1.0023492574691772,0.4368431568145752,-0.8516811728477478
1646037703016764400,8.465764404296875,-0.9803580641746521,0.40935423970222473,-0.8791701197624207
1646037703026762000,8.475761962890624,-0.9504256844520569,0.3959151804447174,-0.9139893651008606
1646037703036759600,8.485759521484376,-0.903389036655426,0.4020238518714905,-0.9762976765632629
1646037703046757000,8.495757080078125,-0.8899500370025635,0.4111868143081665,-0.9995105862617493
1646037703056754700,8.505754638671876,-0.8691806197166443,0.45944517850875854,-1.053877592086792
1646037703066752300,8.515752197265625,-0.8478003740310669,0.497318834066391,-1.078922986984253
1646037703076749800,8.525749755859374,-0.8178679347038269,0.5431337356567383,-1.0886969566345215
1646037703086747400,8.535747314453126,-0.7781617045402527,0.5913920998573303,-1.0935837030410767
1646037703096745000,8.545744873046875,-0.7372336983680725,0.6310983300209045,-1.0923620462417603
1646037703106742500,8.555742431640626,-0.6901971101760864,0.6665285229682922,-1.078922986984253
1646037703116740000,8.565739990234375,-0.6339974999427795,0.7062347531318665,-1.061207890510559
1646037703126737700,8.575737548828124,-0.5790196061134338,0.7477735877037048,-1.039827585220337
1646037703136735200,8.5857353515625,-0.5258743166923523,0.7819820642471313,-1.0129495859146118
1646037703146732800,8.59573291015625,-0.4733399450778961,0.8186339735984802,-0.985460638999939
1646037703156730400,8.60573046875,-0.42874675989151,0.8937703967094421,-0.9720215797424316
1646037703166728000,8.61572802734375,-0.38720792531967163,1.0061695575714111,-0.984238862991333
1646037703176725500,8.6257255859375,-0.3444473445415497,1.1539989709854126,-1.014782190322876
1646037703186723000,8.63572314453125,-0.2876369059085846,1.3061044216156006,-1.0520448684692383
1646037703196720600,8.645720703125,-0.16729645431041718,1.4582098722457886,-1.1039685010910034
1646037703206718200,8.65571826171875,-0.07139059901237488,1.4856988191604614,-1.1222944259643555
1646037703216715500,8.665715576171875,0.03123476170003414,1.4557663202285767,-1.1308465003967285
1646037703226713000,8.675713134765624,0.12775146961212158,1.3616931438446045,-1.137566089630127
1646037703236710700,8.685710693359376,0.21877038478851318,1.2364658117294312,-1.1406203508377075
1646037703246708200,8.695708251953125,0.3030698001384735,1.0935232639312744,-1.1485615968704224
1646037703256705800,8.705705810546876,0.38126057386398315,0.950580894947052,-1.165665864944458
1646037703266703400,8.715703369140625,0.460062175989151,0.8296295404434204,-1.1968200206756592
1646037703276701000,8.725700927734374,0.5345876812934875,0.7532713413238525,-1.2499653100967407
1646037703286698500,8.735698486328126,0.6048372387886047,0.7111216187477112,-1.31654953956604
1646037703296696000,8.745696044921875,0.6671454906463623,0.6903522610664368,-1.3806904554367065
1646037703306693600,8.755693603515626,0.720901608467102,0.6927956938743591,-1.4362791776657104
1646037703316691200,8.765691162109375,0.7716034650802612,0.7050129771232605,-1.4772071838378906
1646037703326688800,8.775688720703124,0.8461290001869202,0.730669379234314,-1.5242438316345215
1646037703336686300,8.785686279296876,0.8937764763832092,0.758769154548645,-1.556619644165039
1646037703346684000,8.795683837890625,0.9377588033676147,0.7966428399085999,-1.5993802547454834
1646037703356681500,8.805681396484376,0.9768542051315308,0.8296295404434204,-1.668407917022705
1646037703366679000,8.815678955078125,1.0147278308868408,0.8644488453865051,-1.7759202718734741
1646037703376676600,8.825676513671874,1.0764251947402954,0.8888834714889526,-1.9042019844055176
1646037703386674200,8.835674072265626,1.1552268266677856,0.901100754737854,-2.036759853363037
1646037703396671700,8.845671630859375,1.2389154434204102,0.8901051878929138,-2.164430618286133
1646037703406669300,8.85566943359375,1.3103865385055542,0.8778879046440125,-2.2786624431610107
1646037703416667000,8.8656669921875,1.3549797534942627,0.882163941860199,-2.372124671936035
1646037703426664400,8.87566455078125,1.382468581199646,0.9035442471504211,-2.40511155128479
1646037703436662000,8.885662109375,1.3873555660247803,0.9328657984733582,-2.432600259780884
1646037703446659600,8.89565966796875,1.4038490056991577,0.9591329097747803,-2.4142744541168213
1646037703456657200,8.9056572265625,1.3635318279266357,1.0385453701019287,-2.2896580696105957
1646037703466654700,8.91565478515625,1.2981692552566528,1.0886363983154297,-2.170539379119873
1646037703476652300,8.92565234375,1.223032832145691,1.1711031198501587,-2.0178229808807373
1646037703486649900,8.93564990234375,1.146674633026123,1.2676198482513428,-1.8376176357269287
1646037703496647400,8.9456474609375,1.0306103229522705,1.3232085704803467,-1.664131999015808
1646037703506645000,8.95564501953125,0.8919439315795898,1.3250412940979004,-1.4973657131195068
1646037703516642600,8.965642578125,0.7654948234558105,1.2865567207336426,-1.320214867591858
1646037703526640000,8.97564013671875,0.6610367894172668,1.215085506439209,-1.1485615968704224
1646037703536637700,8.9856376953125,0.5742939710617065,1.1051297187805176,-1.008062720298767
1646037703546635300,8.99563525390625,0.5083205103874207,0.9866219162940979,-0.8956634402275085
1646037703556632800,9.0056328125,0.4557861089706421,0.8888834714889526,-0.8119749426841736
1646037703566630400,9.01563037109375,0.39714303612709045,0.8394033908843994,-0.7649382948875427
1646037703576628000,9.0256279296875,0.3330022096633911,0.8326838612556458,-0.7624948024749756
1646037703586625300,9.035625244140626,0.27008306980133057,0.8681139945983887,-0.7918163537979126
1646037703596622800,9.045622802734375,0.19494664669036865,1.015332579612732,-0.8993285894393921
1646037703606620400,9.055620361328126,0.16318166255950928,1.1582750082015991,-1.0056191682815552
1646037703616618000,9.065617919921875,0.14485569298267365,1.3073261976242065,-1.1265705823898315
1646037703626615600,9.075615478515624,0.1314166635274887,1.445381760597229,-1.253630518913269
1646037703636613000,9.085613037109376,0.11492329835891724,1.576717734336853,-1.375192642211914
1646037703646610700,9.095610595703125,0.0917104184627533,1.6775104999542236,-1.4845376014709473
1646037703656608300,9.105608154296876,0.0611671581864357,1.7581446170806885,-1.564560890197754
1646037703666605800,9.115605712890625,0.03184562548995018,1.8070138692855835,-1.60365629196167
1646037703676603400,9.125603271484374,0.02023918740451336,1.823507308959961,-1.602434515953064
1646037703686601000,9.13560107421875,0.023904379457235336,1.8204530477523804,-1.5602847337722778
1646037703696598500,9.1455986328125,0.033067356795072556,1.797240138053894,-1.4937005043029785
1646037703706596000,9.15559619140625,0.0458955280482769,1.7673077583312988,-1.4106228351593018
1646037703716593700,9.16559375,0.06299975514411926,1.73859703540802,-1.3110517263412476
1646037703726591200,9.17559130859375,0.08743436634540558,1.715994954109192,-1.1565029621124268
1646037703736588800,9.1855888671875,0.09354301542043686,1.6933929920196533,-1.0740361213684082
1646037703746586400,9.19558642578125,0.08804522454738617,1.6231434345245361,-1.0166147947311401
1646037703756584000,9.205583984375,0.06910840421915054,1.5590026378631592,-0.9762976765632629
1646037703766581500,9.21558154296875,0.06483235210180283,1.5137985944747925,-0.9671347141265869
1646037703776579000,9.2255791015625,0.08438003808259964,1.4747031927108765,-0.9824063181877136
1646037703786576600,9.23557666015625,0.12408628314733505,1.452712059020996,-1.0013431310653687
1646037703796574200,9.24557421875,0.18334020674228668,1.4398839473724365,-1.0190582275390625
1646037703806571800,9.25557177734375,0.24442672729492188,1.4337753057479858,-1.0117278099060059
1646037703816569300,9.2655693359375,0.2920742332935333,1.4056754112243652,-0.984238862991333
1646037703826566700,9.275566650390624,0.32139575481414795,1.3445889949798584,-0.9390349388122559
1646037703836564200,9.285564208984376,0.33178046345710754,1.2682307958602905,-0.8791701197624207
1646037703846561800,9.295561767578125,0.3293370008468628,1.1894291639328003,-0.8174726963043213
1646037703856559400,9.305559326171876,0.32139575481414795,1.0709213018417358,-0.7405036687850952
1646037703866557000,9.315556884765625,0.32750439643859863,0.9939522743225098,-0.6983540058135986
1646037703876554500,9.325554443359374,0.33666738867759705,0.9151506423950195,-0.6635346412658691
1646037703886552000,9.335552001953126,0.34216517210006714,0.8357381820678711,-0.6293262243270874
1646037703896549600,9.345549560546875,0.349495530128479,0.7673212885856628,-0.587176501750946
1646037703906547200,9.355547119140626,0.34705209732055664,0.7068456411361694,-0.5303660035133362
1646037703916511500,9.365511474609375,0.34094345569610596,0.6414830088615417,-0.4686686396598816
1646037703926475800,9.375475830078125,0.3336130678653717,0.579174816608429,-0.4130798876285553
1646037703936440000,9.385440185546875,0.3091784417629242,0.5223643183708191,-0.36543241143226624
1646037703946404400,9.395404296875,0.2621418237686157,0.48510152101516724,-0.31350886821746826
1646037703956368400,9.405368408203126,0.19372491538524628,0.4661647081375122,-0.2652505040168762
1646037703966332700,9.415332763671875,0.11858849227428436,0.4515039324760437,-0.21393783390522003
1646037703976297000,9.425296875,0.0458955280482769,0.4447844326496124,-0.1699555367231369
1646037703986261200,9.43526123046875,-0.024964839220046997,0.4356214702129364,-0.14063400030136108
1646037703996225300,9.445225341796874,-0.0903274267911911,0.4270693361759186,-0.13635796308517456
1646037704006189600,9.455189453125,-0.16729645431041718,0.4148520231246948,-0.16079255938529968
1646037704016153900,9.46515380859375,-0.2564827501773834,0.38797396421432495,-0.22126822173595428
1646037704026118100,9.4751181640625,-0.32428881525993347,0.30306369066238403,-0.36543241143226624
1646037704036082200,9.485082275390624,-0.31451496481895447,0.24075543880462646,-0.468057781457901
1646037704046046500,9.49504638671875,-0.2913020849227905,0.21021217107772827,-0.5468593835830688
1646037704056010800,9.5050107421875,-0.29069122672080994,0.19799485802650452,-0.5987829566001892
1646037704065975000,9.51497509765625,-0.33467352390289307,0.20104919373989105,-0.6317696571350098
1646037704075939300,9.524939208984375,-0.40614473819732666,0.19494053721427917,-0.6647564172744751
1646037704085903400,9.5349033203125,-0.5081592202186584,0.19738399982452393,-0.6702541708946228
1646037704095867600,9.54486767578125,-0.6284996867179871,0.21754255890846252,-0.6177197694778442
1646037704105832000,9.55483203125,-0.7586140036582947,0.24808581173419952,-0.5065423250198364
1646037704115796200,9.564796142578125,-0.8856739401817322,0.2700769603252411,-0.33977609872817993
1646037704125760500,9.574760498046874,-0.9876884818077087,0.26702263951301575,-0.13147102296352386
1646037704135724500,9.584724609375,-1.0634357929229736,0.24503149092197418,0.09454911202192307
1646037704145688800,9.594688720703125,-1.1397939920425415,0.17966891825199127,0.41280990839004517
1646037704155653000,9.604653076171875,-1.201491355895996,0.10697594285011292,0.5795761346817017
1646037704165617400,9.614617431640625,-1.2906776666641235,0.024509135633707047,0.7060251832008362
1646037704175581700,9.624581787109374,-1.3823074102401733,-0.04696209728717804,0.8019310832023621
1646037704185545700,9.634545654296875,-1.4586654901504517,-0.10621602833271027,0.8404155969619751
1646037704195510000,9.644510009765625,-1.540521502494812,-0.1092703565955162,0.8196461796760559
1646037704205474300,9.654474365234375,-1.6474230289459229,-0.14653313159942627,0.7310706973075867
1646037704215471900,9.664471923828126,-1.696903109550476,-0.1752438098192215,0.5899608135223389
1646037704225469400,9.674469482421875,-1.608938455581665,-0.11171381175518036,0.4256380498409271
1646037704235467000,9.684467041015624,-1.4885979890823364,0.013513561338186264,0.2545958161354065
1646037704245464600,9.694464599609375,-1.400633454322815,0.16989506781101227,0.09577084332704544
1646037704255462100,9.704462158203125,-1.32977294921875,0.3152810037136078,-0.055112872272729874
1646037704265459700,9.714459716796876,-1.2631887197494507,0.42340415716171265,-0.18278370797634125
1646037704275457300,9.724457275390625,-1.2112650871276855,0.4814363420009613,-0.2805221676826477
1646037704285454800,9.734454833984374,-1.1599525213241577,0.4814363420009613,-0.3758171498775482
1646037704295452400,9.744452392578125,-1.1287983655929565,0.4466170370578766,-0.4069712460041046
1646037704305449700,9.75444970703125,-1.1074180603027344,0.3910282850265503,-0.4179668128490448
1646037704315447300,9.764447265625,-1.1013094186782837,0.32261139154434204,-0.40941470861434937
1646037704325444900,9.77444482421875,-1.1043637990951538,0.24991841614246368,-0.3782605826854706
1646037704335442400,9.7844423828125,-1.1031420230865479,0.1790580451488495,-0.3251153230667114
1646037704345440000,9.79443994140625,-1.1000876426696777,0.12530189752578735,-0.2658613920211792
1646037704355437600,9.8044375,-1.0988659858703613,0.0978129655122757,-0.21149437129497528
1646037704365435100,9.81443505859375,-1.0945898294448853,0.09475863724946976,-0.16323602199554443
1646037704375432700,9.8244326171875,-1.0793182849884033,0.10636508464813232,-0.1247515082359314
1646037704385430300,9.83443017578125,-1.0469423532485962,0.1381300687789917,-0.08260180801153183
1646037704395427800,9.844427734375,-0.998073160648346,0.16012121737003326,-0.05633460357785225
1646037704405425400,9.85442529296875,-0.9492039680480957,0.14912563562393188,-0.05633460357785225
1646037704415423000,9.864423095703126,-0.905221700668335,0.11369545757770538,-0.07038450986146927
1646037704425420500,9.874420654296875,-0.8264200687408447,0.04161336272954941,-0.08199094235897064
1646037704435418000,9.884418212890624,-0.7567814588546753,-0.009699317626655102,-0.06549758464097977
1646037704445415700,9.894415771484375,-0.6718711256980896,-0.05612507462501526,-0.03189999237656593
1646037704455413200,9.904413330078125,-0.5735218524932861,-0.07750536501407623,0.014525764621794224
1646037704465410800,9.914410888671876,-0.45623570680618286,-0.0793379619717598,0.059729792177677155
1646037704475408400,9.924408447265625,-0.30535200238227844,-0.06345546245574951,0.0878295972943306
1646037704485406000,9.934406005859374,-0.155689999461174,-0.018251432105898857,0.10493382066488266
1646037704495403500,9.944403564453125,-0.034127820283174515,0.04039163142442703,0.09882516413927078
1646037704505401000,9.954401123046875,0.06055629253387451,0.08926084637641907,0.06156238913536072
1646037704515398400,9.9643984375,0.13752532005310059,0.14973650872707367,0.002919325139373541
1646037704525396200,9.974396240234375,0.21205087006092072,0.2132664918899536,-0.06183239072561264
1646037704535393500,9.9843935546875,0.2743591368198395,0.2761856019496918,-0.13635796308517456
1646037704545391000,9.99439111328125,0.33055874705314636,0.3305526077747345,-0.2249334156513214
1646037704555388700,10.004388671875,0.40264084935188293,0.3763675093650818,-0.36421069502830505
1646037704565386200,10.01438623046875,0.4441796541213989,0.3959151804447174,-0.4497317969799042
1646037704575383800,10.0243837890625,0.47838813066482544,0.39896953105926514,-0.5303660035133362
1646037704585381400,10.03438134765625,0.5150400400161743,0.3898065388202667,-0.6042807102203369
1646037704595412200,10.044412109375,0.5590223670005798,0.37697839736938477,-0.6708650588989258
1646037704605476600,10.0544765625,0.6170545220375061,0.3610958755016327,-0.7264537811279297
1646037704615540700,10.064540771484374,0.6885257363319397,0.34215906262397766,-0.7765447497367859
1646037704625604900,10.07460498046875,0.7618296146392822,0.3201678991317749,-0.8131966590881348
1646037704635669200,10.084669189453125,0.8583463430404663,0.28229427337646484,-0.8498485684394836
1646037704645733400,10.0947333984375,0.9139350652694702,0.2639683187007904,-0.8693962693214417
1646037704655797800,10.1047978515625,0.9591391086578369,0.24197715520858765,-0.8877222537994385
1646037704665862000,10.11486181640625,0.9902932047843933,0.22548379004001617,-0.8956634402275085
1646037704675926000,10.124926025390625,1.0128952264785767,0.21143390238285065,-0.900550365447998
1646037704685990400,10.134990478515626,1.031831979751587,0.2041035145521164,-0.8968852162361145
1646037704696054500,10.145054443359374,1.0354971885681152,0.19799485802650452,-0.9060481786727905
1646037704706118700,10.15511865234375,1.0135060548782349,0.20166005194187164,-0.9555282592773438
1646037704716183000,10.16518310546875,1.0012887716293335,0.2034926414489746,-1.0587645769119263
1646037704726247200,10.1752470703125,1.0385515689849854,0.22548379004001617,-1.1791049242019653
1646037704736311300,10.185311279296876,1.0745927095413208,0.24258802831172943,-1.3348755836486816
1646037704746375700,10.195375732421875,1.128348708152771,0.2908463776111603,-1.4704877138137817
1646037704756439800,10.205439697265625,1.1955440044403076,0.3586524426937103,-1.5700587034225464
1646037704766504000,10.21550390625,1.3128300905227661,0.48876672983169556,-1.6928426027297974
1646037704776568300,10.225568359375,1.36841881275177,0.5889486074447632,-1.7356030941009521
1646037704786632400,10.235632568359375,1.3873555660247803,0.7129542827606201,-1.7148337364196777
1646037704796696600,10.245696533203125,1.3537580966949463,0.8510098457336426,-1.631756067276001
1646037704806761000,10.255760986328125,1.2645716667175293,0.9811241030693054,-1.4955331087112427
1646037704816825000,10.2658251953125,1.1527832746505737,1.0696995258331299,-1.3226581811904907
1646037704826889200,10.27588916015625,1.0452711582183838,1.0782517194747925,-1.1357334852218628
1646037704836953600,10.28595361328125,0.9634150862693787,1.0092239379882812,-0.9524739384651184
1646037704847017700,10.296017822265625,0.9127132892608643,0.8949921131134033,-0.8034228086471558
1646037704857081900,10.306081787109376,0.8913329839706421,0.7349454164505005,-0.6952996253967285
1646037704867146200,10.316146240234374,0.882780909538269,0.5541292428970337,-0.6134437322616577
1646037704877210400,10.32621044921875,0.874228835105896,0.3763675093650818,-0.5267008543014526
1646037704887274500,10.3362744140625,0.8565137386322021,0.21754255890846252,-0.43507105112075806
1646037704897305300,10.346305419921874,0.8192509412765503,0.08376306295394897,-0.3519933819770813
1646037704907303000,10.356302978515625,0.7355623841285706,-0.05856853723526001,-0.2664722502231598
1646037704917300500,10.366300537109375,0.6769193410873413,-0.10621602833271027,-0.2414267659187317
1646037704927298000,10.376298095703126,0.6201089024543762,-0.09644218534231186,-0.23837244510650635
1646037704937295600,10.386295654296875,0.5651310086250305,-0.04024257883429527,-0.26463964581489563
1646037704947293200,10.396293212890624,0.5132074356079102,0.048943743109703064,-0.3220609724521637
1646037704957290800,10.406290771484375,0.4753338098526001,0.16684074699878693,-0.3984191417694092
1646037704967288300,10.416288330078125,0.45822954177856445,0.2945115566253662,-0.4790533483028412
1646037704977286000,10.426285888671876,0.4557861089706421,0.40813249349594116,-0.5609093308448792
1646037704987283500,10.436283447265625,0.459451287984848,0.49426448345184326,-0.6268827319145203
1646037704997281000,10.446281005859374,0.4667816758155823,0.5614596605300903,-0.6439869999885559
1646037705007278600,10.456278564453125,0.4710577428340912,0.5993332862854004,-0.6097785234451294
1646037705017276200,10.466276123046875,0.46311649680137634,0.6060528755187988,-0.5462485551834106
1646037705027273700,10.476273681640626,0.43868187069892883,0.5834507942199707,-0.4747772812843323
1646037705037271300,10.486271240234375,0.3940887153148651,0.49059930443763733,-0.38070404529571533
1646037705047268600,10.4962685546875,0.3592694103717804,0.4008021354675293,-0.3153414726257324
1646037705057266200,10.50626611328125,0.32567182183265686,0.31344839930534363,-0.23898330330848694
1646037705067263700,10.516263671875,0.2932959496974945,0.24564234912395477,-0.1552947759628296
1646037705077261300,10.52626123046875,0.26030924916267395,0.19188621640205383,-0.08015834540128708
1646037705087259000,10.5362587890625,0.23159855604171753,0.13141055405139923,-0.005021923221647739
1646037705097256400,10.54625634765625,0.21449433267116547,0.09353691339492798,0.07805574685335159
1646037705107254000,10.55625390625,0.20166616141796112,0.08926084637641907,0.1483052521944046
1646037705117251600,10.56625146484375,0.18456193804740906,0.09720209985971451,0.19289842247962952
1646037705127249200,10.576249267578126,0.17112290859222412,0.10636508464813232,0.20022881031036377
1646037705137246700,10.586246826171875,0.15890559554100037,0.08681739121675491,0.18617889285087585
1646037705147244300,10.596244384765624,0.1521860808134079,0.06055018678307533,0.17029640078544617
1646037705157241900,10.606241943359375,0.14607742428779602,0.01778961718082428,0.15441390872001648
1646037705167239400,10.616239501953125,0.13508184254169464,-0.042686041444540024,0.13425534963607788
1646037705177237000,10.626237060546876,0.11614502966403961,-0.11721160262823105,0.11898371577262878
1646037705187234600,10.636234619140625,0.09293214976787567,-0.14042448997497559,0.11959458887577057
1646037705197232000,10.646232177734374,0.05750196799635887,-0.13309410214424133,0.11898371577262878
1646037705207229700,10.656229736328125,0.023904379457235336,-0.08850093930959702,0.1128750666975975
1646037705217227300,10.666227294921875,-0.012747535482048988,-0.024970948696136475,0.10249035805463791
1646037705227224800,10.676224853515626,-0.04695599153637886,0.03489384427666664,0.0829426720738411
1646037705237222400,10.686222412109375,-0.06772541254758835,0.08926084637641907,0.06889276951551437
1646037705247220000,10.696219970703124,-0.08116444200277328,0.11369545757770538,0.06644930690526962
1646037705257217500,10.706217529296875,-0.10376645624637604,0.10575421154499054,0.07316882908344269
1646037705267214800,10.71621484375,-0.13797491788864136,0.056884992867708206,0.11165333539247513
1646037705277212400,10.72621240234375,-0.14958134293556213,0.03489384427666664,0.1275358349084854
1646037705287210000,10.7362099609375,-0.18073546886444092,-0.036577388644218445,0.15624651312828064
1646037705297207600,10.74620751953125,-0.2125004678964615,-0.0994965061545372,0.1935092806816101
1646037705307205000,10.756205078125,-0.2528175711631775,-0.1648590862751007,0.26131534576416016
1646037705317202700,10.76620263671875,-0.28458258509635925,-0.21800436079502106,0.29246944189071655
1646037705327200300,10.7762001953125,-0.31512582302093506,-0.2552671432495117,0.3211801052093506
1646037705337197800,10.78619775390625,-0.34139302372932434,-0.26320841908454895,0.3547777235507965
1646037705347195400,10.7961953125,-0.3682711124420166,-0.2363303154706955,0.3755471110343933
1646037705357193000,10.80619287109375,-0.3951491713523865,-0.17157861590385437,0.3804340660572052
1646037705367190500,10.8161904296875,-0.43668800592422485,-0.09277699142694473,0.359664648771286
1646037705377188000,10.82618798828125,-0.49655279517173767,-0.027414409443736076,0.3059084713459015
1646037705387185700,10.836185546875,-0.5448111295700073,-0.02069489285349846,0.22160908579826355
1646037705397183200,10.846183349609374,-0.5503089427947998,-0.059790268540382385,0.1434183418750763
1646037705407180800,10.856180908203125,-0.5215982794761658,-0.10804862529039383,0.11715112626552582
1646037705417178400,10.866178466796875,-0.4910550117492676,-0.18257418274879456,0.09638170897960663
1646037705427176000,10.876176025390626,-0.4495161771774292,-0.22777821123600006,0.09088391810655594
1646037705437173500,10.886173583984375,-0.448905348777771,-0.2461041659116745,0.12020545452833176
1646037705447171000,10.896171142578124,-0.5118244290351868,-0.20456533133983612,0.12631410360336304
1646037705457168600,10.906168701171875,-0.6132280826568604,-0.1049942895770073,0.12020545452833176
1646037705467166200,10.916166259765625,-0.7451750040054321,0.027563462033867836,0.09882516413927078
1646037705477163800,10.926163818359376,-0.8881174325942993,0.16745160520076752,0.07988834381103516
1646037705487161300,10.936161376953125,-1.0066252946853638,0.2847377359867096,0.08660786598920822
1646037705497158700,10.94615869140625,-1.0860377550125122,0.3555980920791626,0.12264890968799591
1646037705507156500,10.956156494140625,-1.1287983655929565,0.3751457929611206,0.18068110942840576
1646037705517154000,10.966154052734375,-1.1587307453155518,0.33849385380744934,0.2509306073188782
1646037705527151600,10.976151611328126,-1.181943655014038,0.24625322222709656,0.32301273941993713
1646037705537149200,10.986149169921875,-1.1904957294464111,0.11430633068084717,0.392040491104126
1646037705547146800,10.996146728515624,-1.1856087446212769,-0.02374921925365925,0.46045738458633423
1646037705557144000,11.00614404296875,-1.2088216543197632,-0.11110295355319977,0.5233765244483948
1646037705567141600,11.0161416015625,-1.2338671684265137,-0.15203091502189636,0.572856605052948
1646037705577139200,11.02613916015625,-1.1581199169158936,-0.2851995527744293,0.5746892094612122
1646037705587136800,11.03613671875,-1.1025310754776,-0.31452107429504395,0.5551415085792542
1646037705597134300,11.04613427734375,-1.056105375289917,-0.301082044839859,0.5172678828239441
1646037705607132000,11.0561318359375,-1.0090687274932861,-0.3059689700603485,0.43846625089645386
1646037705617129500,11.06612939453125,-0.9669190645217896,-0.3377339541912079,0.3260670602321625
1646037705627127000,11.076126953125,-0.9229367971420288,-0.3609468340873718,0.20817004144191742
1646037705637124600,11.08612451171875,-0.8813979029655457,-0.3365122377872467,0.09210564941167831
1646037705647122200,11.0961220703125,-0.875289261341095,-0.27359309792518616,-0.017239227890968323
1646037705657119700,11.10611962890625,-0.903999924659729,-0.16730254888534546,-0.11131247878074646
1646037705667117300,11.116117431640625,-0.9443170428276062,-0.042686041444540024,-0.18767063319683075
1646037705677115000,11.126114990234376,-0.9937971234321594,0.0929260402917862,-0.2566983997821808
1646037705687112400,11.136112548828125,-1.046331524848938,0.23647937178611755,-0.30923283100128174
1646037705697110000,11.146110107421874,-1.0915355682373047,0.35254377126693726,-0.33794349431991577
1646037705707107600,11.156107666015625,-1.1214679479599,0.4570017457008362,-0.3055676221847534
1646037705717105200,11.166105224609375,-1.111694097518921,0.4826580882072449,-0.23959417641162872
1646037705727102700,11.176102783203126,-1.0890920162200928,0.46982988715171814,-0.1504078507423401
1646037705737100300,11.186100341796875,-1.0652682781219482,0.4056890606880188,-0.054502006620168686
1646037705747097900,11.196097900390624,-1.0390011072158813,0.30306369066238403,0.031019126996397972
1646037705757095400,11.206095458984375,-1.0121229887008667,0.19677312672138214,0.09577084332704544
1646037705767093000,11.216093017578125,-0.9760820269584656,0.09598036855459213,0.13975314795970917
1646037705777090600,11.226090576171876,-0.9308779835700989,0.012291830033063889,0.15930083394050598
1646037705787088100,11.236088134765625,-0.8783435821533203,-0.04635123535990715,0.15563564002513885
1646037705797085700,11.246085693359374,-0.8087049722671509,-0.08055968582630157,0.13547708094120026
1646037705807083300,11.256083251953125,-0.7189077734947205,-0.09583131968975067,0.09210564941167831
1646037705817080600,11.26608056640625,-0.6156715154647827,-0.09216613322496414,0.02857566438615322
1646037705827078100,11.276078125,-0.5002179741859436,-0.06284458935260773,-0.05022595077753067
1646037705837075700,11.28607568359375,-0.30596286058425903,0.004961447790265083,-0.1705664098262787
1646037705847073300,11.2960732421875,-0.1819572150707245,0.05627412721514702,-0.23898330330848694
1646037705857070800,11.30607080078125,-0.06772541254758835,0.09842383116483688,-0.28418734669685364
1646037705867068400,11.316068359375,0.02573697455227375,0.1124737337231636,-0.30373501777648926
1646037705877066000,11.32606591796875,0.09781907498836517,0.11369545757770538,-0.3025133013725281
1646037705887063600,11.3360634765625,0.15524040162563324,0.09170431643724442,-0.2915177345275879
1646037705897061000,11.34606103515625,0.20594221353530884,0.05321980267763138,-0.2799112796783447
1646037705907058700,11.35605859375,0.2627526819705963,0.014735291711986065,-0.27807867527008057
1646037705917056300,11.36605615234375,0.33178046345710754,-0.012753644958138466,-0.2860199213027954
1646037705927053800,11.3760537109375,0.4032517075538635,-0.024970948696136475,-0.30801108479499817
1646037705937051400,11.386051513671875,0.47899898886680603,-0.013975375331938267,-0.34344127774238586
1646037705947049000,11.396049072265624,0.559633195400238,0.02878519333899021,-0.37459540367126465
1646037705957046500,11.406046630859375,0.6335479021072388,0.08864998817443848,-0.40941470861434937
1646037705967044000,11.416044189453125,0.6909692287445068,0.13996265828609467,-0.4472883641719818
1646037705977041700,11.426041748046876,0.7624404430389404,0.21632081270217896,-0.4973793029785156
1646037705987039200,11.436039306640625,0.7990923523902893,0.24564234912395477,-0.5309769511222839
1646037705997036800,11.446036865234374,0.8271921873092651,0.2633574604988098,-0.5602983832359314
1646037706007034400,11.456034423828125,0.8497942090034485,0.2694661021232605,-0.5792352557182312
1646037706017032000,11.466031982421875,0.8687310218811035,0.26641178131103516,-0.5877873301506042
1646037706027029500,11.476029541015626,0.8858352899551392,0.2651900351047516,-0.588398277759552
1646037706037027000,11.486027099609375,0.8998851180076599,0.264579176902771,-0.5908416509628296
1646037706047024600,11.496024658203124,0.8937764763832092,0.2676335275173187,-0.6085567474365234
1646037706057022200,11.506022216796875,0.8675093054771423,0.2902354896068573,-0.6653672456741333
1646037706067019800,11.516019775390625,0.8583463430404663,0.31833532452583313,-0.7521101236343384
1646037706077017300,11.526017333984376,0.8992742896080017,0.34765684604644775,-0.8590115308761597
1646037706087015000,11.536014892578125,0.976243257522583,0.3861413598060608,-0.965912938117981
1646037706097012500,11.546012451171874,1.0593209266662598,0.4301236569881439,-1.0679274797439575
1646037706107010000,11.556010009765625,1.1540051698684692,0.48937758803367615,-1.1583354473114014
1646037706117007600,11.566007568359375,1.1998199224472046,0.548020601272583,-1.1711636781692505
1646037706127005200,11.576005126953126,1.2334176301956177,0.60727459192276,-1.1626116037368774
1646037706137002800,11.586002685546875,1.2560194730758667,0.6427047848701477,-1.1314574480056763
1646037706147000300,11.596000244140624,1.274956464767456,0.6530894637107849,-1.0764796733856201
1646037706156998000,11.605997802734375,1.290228009223938,0.6420938968658447,-1.0025649070739746
1646037706166995500,11.615995361328125,1.2951149940490723,0.6237679719924927,-0.9146002531051636
1646037706176992800,11.62599267578125,1.2865629196166992,0.6017767786979675,-0.8272465467453003
1646037706186990600,11.635990478515625,1.263960838317871,0.5944464206695557,-0.7264537811279297
1646037706196988000,11.64598779296875,1.2138699293136597,0.5999442338943481,-0.6164980530738831
1646037706206985700,11.65598583984375,1.1277378797531128,0.6023876070976257,-0.4943249821662903
1646037706216983300,11.6659833984375,1.0281668901443481,0.5712335109710693,-0.36421069502830505
1646037706226980600,11.675980712890626,0.9347044825553894,0.5077035427093506,-0.2310420721769333
1646037706236978200,11.685978271484375,0.8565137386322021,0.4148520231246948,-0.10520382970571518
1646037706246975700,11.695975830078124,0.7758795022964478,0.2438097596168518,0.06644930690526962
1646037706256973300,11.705973388671875,0.7361732721328735,0.1277453601360321,0.1525813192129135
1646037706266971000,11.715970947265625,0.6952453255653381,0.026952596381306648,0.21305698156356812
1646037706276968400,11.725968505859376,0.6469869613647461,-0.03169046714901924,0.2338263839483261
1646037706286966000,11.735966064453125,0.5913981795310974,-0.028636140748858452,0.20083965361118317
1646037706296963600,11.745963623046874,0.5339768528938293,0.025120001286268234,0.11226420849561691
1646037706306961200,11.755961181640625,0.4869402348995209,0.13568662106990814,-0.025180477648973465
1646037706316958700,11.765958740234375,0.44723400473594666,0.2987876236438751,-0.1956118792295456
1646037706326956300,11.775956298828126,0.4148581326007843,0.5028166174888611,-0.38986703753471375
1646037706336953900,11.785953857421875,0.39653217792510986,0.730058491230011,-0.5926743149757385
1646037706346951200,11.795951171875,0.39775389432907104,0.9536352157592773,-0.7808207869529724
1646037706356948700,11.80594873046875,0.41730159521102905,1.1362839937210083,-0.930482804775238
1646037706366946300,11.8159462890625,0.44234707951545715,1.2535700798034668,-1.031886339187622
1646037706376943900,11.82594384765625,0.4618947505950928,1.33786940574646,-1.087475061416626
1646037706386941400,11.83594140625,0.469225138425827,1.342145562171936,-1.0679274797439575
1646037706396939000,11.84593896484375,0.4643382132053375,1.2969413995742798,-1.0184473991394043
1646037706406936600,11.8559365234375,0.44723400473594666,1.2156964540481567,-0.9268175363540649
1646037706416934100,11.86593408203125,0.42218852043151855,1.113071084022522,-0.8064771294593811
1646037706426931700,11.875931640625,0.3892017900943756,1.0012826919555664,-0.672086775302887
1646037706436929300,11.88592919921875,0.34705209732055664,0.9047659039497375,-0.5444159507751465
1646037706446926800,11.8959267578125,0.3146762251853943,0.8021405935287476,-0.4320167303085327
1646037706456924400,11.90592431640625,0.29635027050971985,0.7331128120422363,-0.34405213594436646
1646037706466922000,11.915921875,0.2841329574584961,0.7062347531318665,-0.2866308093070984
1646037706476919600,11.92591943359375,0.27069392800331116,0.7031804323196411,-0.26341789960861206
1646037706486917000,11.935917236328125,0.25053539872169495,0.7123433947563171,-0.26891571283340454
1646037706496914700,11.945914794921874,0.22976596653461456,0.730058491230011,-0.29396116733551025
1646037706506912300,11.955912353515625,0.19861182570457458,0.7563256621360779,-0.3367217481136322
1646037706516909600,11.96590966796875,0.18456193804740906,0.7606017589569092,-0.3574911952018738
1646037706526907100,11.9759072265625,0.17600983381271362,0.7514387965202332,-0.3715410828590393
1646037706536904700,11.98590478515625,0.16012734174728394,0.730058491230011,-0.377038836479187
1646037706546902300,11.99590234375,0.14057964086532593,0.7141759991645813,-0.3813149034976959
1646037706556899800,12.00589990234375,0.1216428130865097,0.7062347531318665,-0.3880344331264496
1646037706566897400,12.0158974609375,0.1063711866736412,0.7178412079811096,-0.4039169251918793
1646037706576895000,12.02589501953125,0.08926696330308914,0.7520496249198914,-0.42529720067977905
1646037706586892500,12.035892578125,0.07827138155698776,0.778316855430603,-0.4527861475944519
1646037706596890000,12.04589013671875,0.07033013552427292,0.7954210638999939,-0.4790533483028412
1646037706606887700,12.0558876953125,0.06910840421915054,0.8045840263366699,-0.49982279539108276
1646037706616885200,12.06588525390625,0.07033013552427292,0.8027514815330505,-0.5071531534194946
1646037706626882800,12.0758828125,0.07277359813451767,0.7948101758956909,-0.5016553401947021
1646037706636880400,12.08588037109375,0.07399532943964005,0.7838146090507507,-0.4827185273170471
1646037706646878000,12.0958779296875,0.07460619509220123,0.7648777961730957,-0.4289624094963074
1646037706656875500,12.10587548828125,0.0660540759563446,0.7325019240379333,-0.3837583661079407
1646037706666873000,12.115873046875,0.04711725935339928,0.6940174698829651,-0.34405213594436646
1646037706676870700,12.12587060546875,0.024515243247151375,0.6585872769355774,-0.31289801001548767
1646037706686901500,12.135901611328125,-0.0060280184261500835,0.6469808220863342,-0.296404629945755
1646037706696932400,12.145932373046875,-0.03351695090532303,0.6561437845230103,-0.30312418937683105
1646037706706963500,12.15596337890625,-0.06283848732709885,0.6842436194419861,-0.3177849352359772
1646037706716994300,12.165994384765625,-0.1007121279835701,0.7178412079811096,-0.3458847403526306
1646037706727025200,12.176025146484376,-0.16912904381752014,0.7428866624832153,-0.39902999997138977
1646037706737056000,12.186055908203125,-0.2418220043182373,0.7337237000465393,-0.4747772812843323
1646037706747086800,12.1960869140625,-0.2473197877407074,0.6207136511802673,-0.5835112929344177
1646037706757117700,12.20611767578125,-0.18867672979831696,0.5046492218971252,-0.6030589938163757
1646037706767148800,12.216148681640625,-0.13186626136302948,0.3806435763835907,-0.588398277759552
1646037706777179600,12.2261796875,-0.11781635880470276,0.2890138030052185,-0.5541897416114807
1646037706787210500,12.23621044921875,-0.14469443261623383,0.24747493863105774,-0.5328094959259033
1646037706797241300,12.246241455078126,-0.217387393116951,0.26824435591697693,-0.5328094959259033
1646037706807272200,12.256272216796875,-0.33589527010917664,0.3708697259426117,-0.5364746451377869
1646037706817303000,12.266302978515625,-0.47211819887161255,0.5241969227790833,-0.5315877795219421
1646037706827334000,12.276333984375,-0.6065085530281067,0.6799675226211548,-0.5071531534194946
1646037706837365000,12.286364990234375,-0.72379469871521,0.7795385718345642,-0.4527861475944519
1646037706847395800,12.296395751953124,-0.8087049722671509,0.7911450266838074,-0.35932376980781555
1646037706857426700,12.3064267578125,-0.855741560459137,0.7221172451972961,-0.22859860956668854
1646037706867457500,12.31645751953125,-0.885063111782074,0.5669574737548828,-0.08076921105384827
1646037706877488400,12.32648828125,-0.9101085662841797,0.33727216720581055,0.07194709777832031
1646037706887519200,12.336519287109375,-0.9553126096725464,-0.06956411153078079,0.27658694982528687
1646037706897550000,12.346550048828124,-0.9858558773994446,-0.29802772402763367,0.37432539463043213
1646037706907581000,12.356580810546875,-1.0225077867507935,-0.4373050034046173,0.4054795205593109
1646037706917611800,12.36661181640625,-1.0811508893966675,-0.5118305087089539,0.3621080815792084
1646037706927642600,12.376642578125,-1.1465134620666504,-0.5179392099380493,0.2497088760137558
1646037706937673700,12.386673828125,-1.2045456171035767,-0.44952231645584106,0.08599700033664703
1646037706947704600,12.39670458984375,-1.2442518472671509,-0.32062971591949463,-0.10886901617050171
1646037706957735400,12.4067353515625,-1.266853928565979,-0.15142005681991577,-0.29884812235832214
1646037706967766300,12.416766357421874,-1.2796820402145386,0.048943743109703064,-0.45645132660865784
1646037706977797000,12.426797119140625,-1.2815146446228027,0.22242946922779083,-0.5621310472488403
1646037706987794700,12.436794677734374,-1.2576909065246582,0.30795061588287354,-0.6378782987594604
1646037706997792300,12.446792236328125,-1.198436975479126,0.34704598784446716,-0.672086775302887
1646037707007789800,12.456789794921875,-1.1330742835998535,0.37209147214889526,-0.671475887298584
1646037707017787400,12.466787353515626,-1.06465744972229,0.35743069648742676,-0.6336022615432739
1646037707027785000,12.476784912109375,-1.0444989204406738,0.3446024954319,-0.5896199345588684
1646037707037782500,12.486782470703124,-1.0408337116241455,0.32200053334236145,-0.5444159507751465
1646037707047780000,12.496780029296875,-1.0444989204406738,0.3042854368686676,-0.4986010491847992
1646037707057777700,12.506777587890625,-1.042055368423462,0.29206812381744385,-0.45522961020469666
1646037707067775200,12.516775146484376,-1.028005599975586,0.2676335275173187,-0.42590808868408203
1646037707077772800,12.526772705078125,-1.0066252946853638,0.224262073636055,-0.4112473130226135
1646037707087770400,12.536770263671874,-0.9858558773994446,0.18638843297958374,-0.3910887539386749
1646037707097768000,12.546767822265625,-0.962643027305603,0.14729304611682892,-0.367875874042511
1646037707107765500,12.556765625,-0.9412627220153809,0.08926084637641907,-0.35382598638534546
1646037707117763000,12.56676318359375,-0.9229367971420288,0.024509135633707047,-0.34527385234832764
1646037707127760600,12.5767607421875,-0.8960586786270142,-0.016418837010860443,-0.33916521072387695
1646037707137791500,12.58679150390625,-0.8496329188346863,-0.009088452905416489,-0.3477173149585724
1646037707147822300,12.596822265625,-0.8062614798545837,0.027563462033867836,-0.3874235451221466
1646037707157853200,12.606853271484376,-0.751894474029541,0.08559565991163254,-0.4369036555290222
1646037707167884000,12.616884033203124,-0.6871427893638611,0.17050594091415405,-0.4931032359600067
1646037707177915000,12.626914794921875,-0.62911057472229,0.25785964727401733,-0.5554115176200867
1646037707187945700,12.63694580078125,-0.5741326808929443,0.3409373462200165,-0.6219958662986755
1646037707197976800,12.646976806640625,-0.5209874510765076,0.4160737693309784,-0.68063884973526
1646037707208007700,12.657007568359376,-0.46600955724716187,0.4820472002029419,-0.7282863855361938
1646037707218038500,12.66703857421875,-0.41164255142211914,0.5321381688117981,-0.7698252201080322
1646037707228069400,12.6770693359375,-0.36521679162979126,0.5639031529426575,-0.7997575998306274
1646037707238100200,12.687100341796874,-0.31634756922721863,0.5810073614120483,-0.8223596215248108
1646037707248131000,12.697131103515625,-0.26931095123291016,0.5889486074447632,-0.8364095687866211
1646037707258162000,12.707161865234376,-0.18806585669517517,0.5797856450080872,-0.8498485684394836
1646037707268192800,12.71719287109375,-0.12697933614253998,0.5736770033836365,-0.8559572100639343
1646037707278224000,12.727223876953126,-0.05550810322165489,0.5663466453552246,-0.862065851688385
1646037707288254700,12.737254638671875,0.016573995351791382,0.5706226825714111,-0.8675636649131775
1646037707298285600,12.74728564453125,0.09048869460821152,0.5767313241958618,-0.8797809481620789
1646037707308316400,12.75731640625,0.16501425206661224,0.5761204361915588,-0.8981069326400757
1646037707318347300,12.76734716796875,0.2383180856704712,0.5803964734077454,-0.9213197827339172
